###################################################################
## OUTPUT of StarlightChains_v04.for    [Cid@UFSC - 01/Apr/2007] ##
###################################################################

## Some input info
KUG0210-078._27_30.txt                   [arq_obs]
Base.CB07.vall.4m                        [arq_base]
Masks.EmLines.NEW.gm                     [arq_masks]
StCv04.C11.config                        [arq_config]
   66                                    [N_base]
    0                                    [N_YAV_components = # of components with extra extinction!]
    0                                    [i_FitPowerLaw (1/0 = Yes/No)]
-9.99                                    [alpha_PowerLaw]
CCM                                      [red_law_option]
 1.458241                                [q_norm = A(l_norm)/A(V)]

## (Re)Sampling Parameters
 3741.00                                 [l_ini (A)]
 7218.00                                 [l_fin (A)]
    1.00                                 [dl    (A)]     (OBS: dl_cushion =    50.00 A)

## Normalization info
 4020.00                                 [l_norm (A) - for base]
 4010.00                                 [llow_norm (A) - window for f_obs]
 4060.00                                 [lupp_norm (A) - window for f_obs]
3.910051E-17                             [fobs_norm (in input units)]

## S/N
 3691.00                                 [llow_SN (A) - window for S/N]
 7268.00                                 [lupp_SN (A) - window for S/N]
   6.251                                 [S/N in S/N window]
   8.945                                 [S/N in norm. window]
   0.041                                 [S/N_err in S/N window]
   0.059                                 [S/N_err in norm. window]
  1.0000                                 [fscale_chi2]

## etc...
    -2007350                             [idum_orig]
  2432                                   [NOl_eff]
  1818                                   [Nl_eff]
   614    NSIGMA                         [Ntot_cliped & clip_method]
 15824060                                [Nglobal_steps]
   7                                     [N_chains]
  38                                     [NEX0s_base = N_base in EX0s-fits]
 0   0   1        0   2.0   4.316E+04    [Clip-Bug, RC-Crash & Burn-In warning-flags, n_censored_weights, wei_nsig_threshold & wei_limit]
   109    108.426    108.006      0.421  [idt_all, wdt_TotTime, wdt_UsrTime & wdt_SysTime (sec)]

## Synthesis Results - Best model ##

 8.76154E-06                             [chi2/Nl_eff]
     8.79128                             [adev (%)]

    82.12106                             [sum-of-x (%)]
 6.10479E-17                             [Flux_tot (units of input spectrum!)]
 1.34938E-12                             [Mini_tot (???)]
 6.80163E-13                             [Mcor_tot (???)]

 369.93                                  [v0_min  (km/s)]
 100.94                                  [vd_min  (km/s)]
 0.4784                                  [AV_min  (mag)]
 0.0000                                  [YAV_min (mag)]

# j     x_j(%)      Mini_j(%)     Mcor_j(%)     age_j(yr)     Z_j      (L/M)_j    YAV?  Mstars   component_j        a/Fe...       SSP_chi2r SSP_adev(%)   SSP_AV   SSP_x(%)
  1     16.1699     8.1428E-02    1.6155E-01    1.000000E+06  0.00400  1.094E-02    0   1.0000   age020_m42            0.0000     1.6802E-05    11.6930   2.8123    68.6631
  2      0.0000     0.0000E+00    0.0000E+00    3.160000E+06  0.00400  4.007E-02    0   0.9999   age045_m42            0.0000     1.5892E-05    11.0742   2.1404    71.6494
  3      0.0000     0.0000E+00    0.0000E+00    5.010000E+06  0.00400  2.539E-02    0   0.9488   age055_m42            0.0000     1.5663E-05    11.2639   2.4360    70.5546
  4      0.0267     5.6113E-05    1.0264E-04    6.610000E+06  0.00400  2.620E-02    0   0.9220   age061_m42            0.0000     1.5053E-05    10.8852   2.0568    72.0559
  5      0.0000     0.0000E+00    0.0000E+00    1.000000E+07  0.00400  1.322E-02    0   0.8862   age070_m42            0.0000     1.2271E-05     9.8367   1.7362    74.9449
  6     27.5474     1.9252E-01    3.2736E-01    1.445000E+07  0.00400  7.883E-03    0   0.8571   age078_m42            0.0000     1.2872E-05    10.1615   2.0577    73.1445
  7      0.0000     0.0000E+00    0.0000E+00    2.512000E+07  0.00400  5.251E-03    0   0.8174   age090_m42            0.0000     1.1918E-05     9.6149   1.6083    75.3278
  8      0.0000     0.0000E+00    0.0000E+00    4.000000E+07  0.00400  3.649E-03    0   0.7851   age104_m42            0.0000     1.1839E-05     9.6253   1.3830    75.9001
  9      0.0000     0.0000E+00    0.0000E+00    5.500000E+07  0.00400  3.098E-03    0   0.7629   age110_m42            0.0000     1.3189E-05     9.9881   1.5608    74.9828
 10      0.0000     0.0000E+00    0.0000E+00    1.015200E+08  0.00400  2.228E-03    0   0.7207   age116_m42            0.0000     1.3852E-05    10.1522   1.5987    74.5335
 11      0.0000     0.0000E+00    0.0000E+00    2.861200E+08  0.00400  1.093E-03    0   0.6648   age125_m42            0.0000     1.2357E-05     9.5454   1.0191    77.1271
 12      0.0000     0.0000E+00    0.0000E+00    5.088000E+08  0.00400  6.597E-04    0   0.6365   age130_m42            0.0000     1.3148E-05     9.8161   1.0335    76.9874
 13      0.2828     7.3082E-02    8.4064E-02    1.434000E+09  0.00400  2.132E-04    0   0.5798   age139_m42            0.0000     1.1768E-05     9.7896   0.0310    80.0040
 14      0.6050     5.6539E-01    6.0312E-01    4.250000E+09  0.00400  5.895E-05    0   0.5377   age158_m42            0.0000     1.4366E-05    10.5618  -0.4138    76.9857
 15      0.0000     0.0000E+00    0.0000E+00    7.500000E+09  0.00400  3.510E-05    0   0.5212   age171_m42            0.0000     1.6667E-05    10.9375  -0.6111    76.7108
 16      0.0000     0.0000E+00    0.0000E+00    1.300000E+10  0.00400  2.005E-05    0   0.5034   age193_m42            0.0000     1.9939E-05    11.4202  -0.7972    76.9037
 17      0.0000     0.0000E+00    0.0000E+00    1.800000E+10  0.00400  1.525E-05    0   0.4967   age213_m42            0.0000     1.9206E-05    11.2645  -0.8115    76.3561
 18      0.0000     0.0000E+00    0.0000E+00    1.000000E+06  0.00800  1.238E-02    0   1.0000   age020_m52            0.0000     1.6802E-05    11.6984   2.8078    68.8247
 19      0.0000     0.0000E+00    0.0000E+00    3.160000E+06  0.00800  3.074E-02    0   0.9966   age045_m52            0.0000     1.6614E-05    11.6605   2.7347    69.3349
 20      0.0000     0.0000E+00    0.0000E+00    5.010000E+06  0.00800  2.668E-02    0   0.9443   age055_m52            0.0000     1.5486E-05    11.3056   2.5004    70.5237
 21      0.0000     0.0000E+00    0.0000E+00    6.610000E+06  0.00800  2.136E-02    0   0.9177   age061_m52            0.0000     1.1250E-05     9.9594   1.1995    77.1781
 22      0.0000     0.0000E+00    0.0000E+00    1.000000E+07  0.00800  1.215E-02    0   0.8827   age070_m52            0.0000     1.1805E-05     9.6216   1.9002    75.2605
 23      0.0000     0.0000E+00    0.0000E+00    1.445000E+07  0.00800  8.717E-03    0   0.8552   age078_m52            0.0000     1.2572E-05     9.9939   2.0235    74.1630
 24      0.0000     0.0000E+00    0.0000E+00    2.512000E+07  0.00800  5.592E-03    0   0.8162   age090_m52            0.0000     1.1745E-05     9.4287   1.6726    76.1883
 25      0.0000     0.0000E+00    0.0000E+00    4.000000E+07  0.00800  3.896E-03    0   0.7841   age104_m52            0.0000     1.2046E-05     9.4980   1.6037    76.0696
 26      0.0408     1.0470E-03    1.5010E-03    1.015200E+08  0.00800  2.148E-03    0   0.7226   age116_m52            0.0000     1.2682E-05     9.8658   1.5603    75.3264
 27      0.0000     0.0000E+00    0.0000E+00    2.861200E+08  0.00800  9.925E-04    0   0.6683   age125_m52            0.0000     1.3001E-05     9.8530   1.0866    78.1110
 28      2.6001     4.5604E-01    5.5532E-01    9.047900E+08  0.00800  3.141E-04    0   0.6138   age135_m52            0.0000     1.2739E-05     9.9739   0.3187    80.4019
 29      0.7165     2.2964E-01    2.6665E-01    1.434000E+09  0.00800  1.719E-04    0   0.5853   age139_m52            0.0000     1.3138E-05    10.1548  -0.2967    80.1565
 30      0.0007     4.6073E-04    5.1186E-04    2.500000E+09  0.00800  7.872E-05    0   0.5600   age150_m52            0.0000     1.6716E-05    10.9473  -0.5661    77.8829
 31      0.0000     0.0000E+00    0.0000E+00    4.250000E+09  0.00800  4.336E-05    0   0.5426   age158_m52            0.0000     1.7096E-05    10.9719  -0.5788    77.0675
 32      0.0000     0.0000E+00    0.0000E+00    6.250000E+09  0.00800  3.159E-05    0   0.5319   age166_m52            0.0000     2.1109E-05    11.4669  -0.7876    77.2531
 33      0.0000     0.0000E+00    0.0000E+00    1.300000E+10  0.00800  1.361E-05    0   0.5073   age193_m52            0.0000     3.2069E-05    12.0273  -1.0000    70.8533
 34     10.9061     6.0776E+01    6.0166E+01    1.800000E+10  0.00800  9.886E-06    0   0.4990   age213_m52            0.0000     4.0268E-05    12.6827  -1.0000    67.9229
 35      0.9191     3.2796E-03    6.5064E-03    1.000000E+06  0.02000  1.544E-02    0   1.0000   age020_m62            0.0000     1.6889E-05    11.7155   2.8019    69.0768
 36      0.0000     0.0000E+00    0.0000E+00    3.160000E+06  0.02000  3.762E-02    0   0.9858   age045_m62            0.0000     1.6742E-05    11.7721   2.7302    69.9181
 37      0.1762     2.9452E-04    5.4585E-04    5.010000E+06  0.02000  3.296E-02    0   0.9342   age055_m62            0.0000     1.5892E-05    11.3179   2.3917    71.5632
 38     16.7023     7.9736E-02    1.4017E-01    8.710000E+06  0.02000  1.154E-02    0   0.8861   age067_m62            0.0000     9.2146E-06     8.4268   1.2556    81.1863
 39      0.2394     1.7214E-03    2.8932E-03    1.445000E+07  0.02000  7.663E-03    0   0.8472   age078_m62            0.0000     1.0551E-05     9.0885   1.5210    77.9941
 40      0.0000     0.0000E+00    0.0000E+00    2.512000E+07  0.02000  4.532E-03    0   0.8099   age090_m62            0.0000     1.0447E-05     8.9688   1.5174    77.6224
 41      0.0000     0.0000E+00    0.0000E+00    5.500000E+07  0.02000  2.733E-03    0   0.7595   age110_m62            0.0000     1.1482E-05     9.5098   1.5721    76.0624
 42      0.0000     0.0000E+00    0.0000E+00    1.609000E+08  0.02000  1.369E-03    0   0.6985   age120_m62            0.0000     1.2863E-05     9.8184   1.4397    77.1161
 43      0.0000     0.0000E+00    0.0000E+00    2.861200E+08  0.02000  9.013E-04    0   0.6714   age125_m62            0.0000     1.3638E-05     9.8817   1.2017    78.9045
 44      0.0000     0.0000E+00    0.0000E+00    5.088000E+08  0.02000  5.028E-04    0   0.6449   age130_m62            0.0000     1.4541E-05    10.2931   0.8582    79.7752
 45      0.0000     0.0000E+00    0.0000E+00    9.047900E+08  0.02000  2.428E-04    0   0.6179   age135_m62            0.0000     1.3027E-05    10.3656   0.2808    79.1061
 46      0.0000     0.0000E+00    0.0000E+00    1.434000E+09  0.02000  1.263E-04    0   0.5908   age139_m62            0.0000     1.4307E-05    10.6533  -0.1830    78.6277
 47      0.0000     0.0000E+00    0.0000E+00    2.500000E+09  0.02000  5.985E-05    0   0.5673   age150_m62            0.0000     1.8796E-05    11.2989  -0.5568    77.7420
 48      0.0000     0.0000E+00    0.0000E+00    4.250000E+09  0.02000  3.271E-05    0   0.5468   age158_m62            0.0000     2.7871E-05    12.1514  -0.8804    77.7105
 49      0.0000     0.0000E+00    0.0000E+00    1.000000E+10  0.02000  1.360E-05    0   0.5167   age181_m62            0.0000     4.0544E-05    12.5566  -1.0000    71.8423
 50      0.0000     0.0000E+00    0.0000E+00    1.800000E+10  0.02000  7.124E-06    0   0.5013   age213_m62            0.0000     5.3631E-05    13.2953  -1.0000    66.2366
 51      0.0000     0.0000E+00    0.0000E+00    1.000000E+06  0.05000  2.592E-02    0   0.9998   age020_m72            0.0000     1.6882E-05    11.6969   2.7937    69.1679
 52      0.0000     0.0000E+00    0.0000E+00    3.160000E+06  0.05000  4.845E-02    0   0.9577   age045_m72            0.0000     1.6513E-05    11.6614   2.6356    70.1208
 53      0.0000     0.0000E+00    0.0000E+00    5.010000E+06  0.05000  3.072E-02    0   0.9147   age055_m72            0.0000     1.2407E-05    10.0268   2.1294    74.1374
 54      0.0000     0.0000E+00    0.0000E+00    6.610000E+06  0.05000  1.455E-02    0   0.8877   age061_m72            0.0000     1.1956E-05     9.6261   1.2912    82.4743
 55      0.0000     0.0000E+00    0.0000E+00    1.000000E+07  0.05000  9.074E-03    0   0.8524   age070_m72            0.0000     1.3820E-05    10.6423   2.3245    73.6555
 56      0.0000     0.0000E+00    0.0000E+00    2.512000E+07  0.05000  4.250E-03    0   0.7902   age090_m72            0.0000     1.2873E-05     9.9008   2.0422    74.2884
 57      0.0000     0.0000E+00    0.0000E+00    4.000000E+07  0.05000  3.087E-03    0   0.7618   age104_m72            0.0000     1.2546E-05     9.5873   1.8197    75.4296
 58      0.1016     3.2916E-03    4.6338E-03    1.015200E+08  0.05000  1.700E-03    0   0.7096   age116_m72            0.0000     1.2734E-05     9.5751   1.5817    76.7863
 59      0.0000     0.0000E+00    0.0000E+00    2.861200E+08  0.05000  7.384E-04    0   0.6633   age125_m72            0.0000     1.3805E-05     9.9496   1.1012    78.7888
 60      0.0000     0.0000E+00    0.0000E+00    5.088000E+08  0.05000  3.819E-04    0   0.6372   age130_m72            0.0000     1.3265E-05    10.3402   0.6303    79.4088
 61      0.0000     0.0000E+00    0.0000E+00    9.047900E+08  0.05000  1.676E-04    0   0.6110   age135_m72            0.0000     1.5762E-05    11.1110  -0.0650    77.9785
 62      0.0000     0.0000E+00    0.0000E+00    1.434000E+09  0.05000  8.837E-05    0   0.5874   age139_m72            0.0000     1.9641E-05    11.3910  -0.5449    78.4823
 63      0.0000     0.0000E+00    0.0000E+00    2.500000E+09  0.05000  4.233E-05    0   0.5598   age150_m72            0.0000     2.8883E-05    12.2961  -0.8637    77.7130
 64      1.3302     5.1068E+00    5.3180E+00    6.250000E+09  0.05000  1.435E-05    0   0.5249   age166_m72            0.0000     4.4752E-05    12.8902  -1.0000    69.2107
 65      3.5794     3.0277E+01    3.0249E+01    1.300000E+10  0.05000  6.513E-06    0   0.5036   age193_m72            0.0000     6.8177E-05    14.3556  -1.0000    63.2342
 66      0.1768     2.1520E+00    2.1112E+00    1.800000E+10  0.05000  4.527E-06    0   0.4945   age213_m72            0.0000     8.3021E-05    15.3759  -1.0000    59.3457


## Synthesis Results - Average & Chains ##

# j      x_j: min, <> & last-chain-values for 1 ...  7 chains
  1     16.1699      2.0128      1.8027      1.9264      2.4892      2.9831      1.0360      2.2608      3.3885
  2      0.0000      0.3427      0.9003      1.1369      0.0000      0.0000      0.1396      0.3662      5.9811
  3      0.0000      0.2859      0.0000      0.0000      0.6317      0.2972      0.0000      0.0000      0.4728
  4      0.0267      0.3127      0.0000      0.0785      0.0000      0.4516      1.9152      0.5753      0.4820
  5      0.0000      0.3091      0.0000      1.4828      0.7666      0.3157      0.8815      1.4417      1.1006
  6     27.5474      0.3777      0.0000      3.0286      0.3375      0.5651      1.9033      1.3967      1.2730
  7      0.0000      0.2948      0.0000      0.1554      0.4278      0.0000      0.3518      2.6426      0.0000
  8      0.0000      0.3947      0.0000      0.0000      0.4705      0.4356      0.0000      0.0000      0.0000
  9      0.0000      0.3382      0.0000      0.2959      0.9784      0.9787      0.0000      0.0000      0.7513
 10      0.0000      0.3152      0.7992      0.9641      0.3235      0.0879      0.0000      1.4035      0.1483
 11      0.0000      0.3710      0.4619      0.0000      0.0000      0.2919      2.3977      2.7377      0.0000
 12      0.0000      0.2600      0.7099      0.2453      0.2731      0.5532      0.0000      0.9157      0.4290
 13      0.2828      0.3282      1.3693      0.0000      0.0000      0.2197      1.0575      1.4621      2.7236
 14      0.6050      3.2237      2.3910      1.9131      3.1108      3.1659      3.5509      5.0530      1.6203
 15      0.0000      0.9479      1.2658      1.9826      0.7305      0.3669      0.0000      0.0760      0.0000
 16      0.0000      1.0187      1.5341      0.8516      0.8449      1.7921      2.4917      0.0000      0.0000
 17      0.0000      4.4737      4.2398      4.9020      4.6180      4.1708      0.0000      0.0000      0.8349
 18      0.0000      0.5977      1.0418      3.0888      0.0000      0.5699      1.5355      0.0000      1.7452
 19      0.0000      1.9229      3.4627      0.8822      1.6422      2.4557      2.2288      0.8055      0.0000
 20      0.0000      7.0388      6.6738      3.3487      7.1626      6.7303      5.2605      5.4380      5.4506
 21      0.0000     14.4438     12.9826     13.7434     10.2360      9.9731     13.4398     13.9889     14.3820
 22      0.0000      0.3959      0.1121      0.3448      0.0000      0.0000      4.5229      0.0000      0.9723
 23      0.0000      0.3398      0.2105      0.0000      0.0000      0.4071      0.0000      0.7741      0.0000
 24      0.0000      0.3439      0.2359      0.9642      1.2213      0.0000      4.3700      0.0000      2.4480
 25      0.0000      0.3721      0.3946      0.7073      0.1033      0.2157      1.8546      1.3726      0.0000
 26      0.0408      0.2851      0.0000      0.0000      0.9585      0.0000      0.6072      0.1845      0.0131
 27      0.0000      0.3504      1.7741      2.9840      0.0000      0.0000      0.2889      1.4009      0.0000
 28      2.6001      0.3746      0.3403      1.4217      0.0681      0.5634      1.2579      0.0000      0.0000
 29      0.7165      0.3135      0.6539      0.0000      0.0000      0.9140      1.1403      1.2920      1.3033
 30      0.0007      0.2873      0.4777      0.0000      1.2894      0.0000      0.8170      0.0586      0.1623
 31      0.0000      0.4140      0.8946      0.0000      0.2207      1.3735      0.5711      1.2290      0.3118
 32      0.0000      0.4091      0.2237      1.4628      0.6891      0.0000      0.0000      0.9591      0.0000
 33      0.0000      4.5831      3.7289      3.4309      5.8237      4.0547      0.0000      3.5000      2.2568
 34     10.9061      6.0355      6.7931      3.6543      5.8292      5.6443      5.7400      0.1032      5.7528
 35      0.9191      0.6077      1.2216      0.1122      0.2431      0.4776      1.2648      0.0000      2.3676
 36      0.0000      4.7272      4.1022      4.8587      4.8553      5.6591      3.8473      3.7650      3.0967
 37      0.1762      1.8651      1.7685      1.6958      1.0062      1.5931      4.9157      0.0000      2.6717
 38     16.7023      0.3099      0.0000      0.0000      0.0036      0.6173      0.7509      0.1725      6.4138
 39      0.2394      0.3259      0.0000      0.6781      0.5495      0.0451      0.5641      0.0000      0.1910
 40      0.0000      0.4297      1.3818      0.0000      0.1516      1.0466      1.3370      0.0000      0.9746
 41      0.0000      0.2781      2.1618      0.6512      0.1040      0.0000      0.0000      1.1841      0.8616
 42      0.0000      0.2503      0.0671      0.0000      0.0629      0.0220      0.0000      0.0000      0.0000
 43      0.0000      0.2797      0.0460      0.9049      0.5004      0.9222      0.0000      1.6693      0.0000
 44      0.0000      0.2962      0.0000      2.1749      0.3515      0.3322      0.0000      2.8259      0.8577
 45      0.0000      0.3261      0.0000      0.2307      0.5487      0.8685      0.1729      0.8542      0.0000
 46      0.0000      0.2784      0.5911      1.1453      0.2004      0.1590      0.1506      0.1286      0.0000
 47      0.0000      0.3130      0.0000      1.1440      0.1270      0.9371      0.0970      2.1766      0.4934
 48      0.0000      1.7459      2.3440      0.8285      2.3874      2.6944      0.8908      1.3955      1.7110
 49      0.0000      2.8149      1.8603      1.2940      2.1918      2.1578      4.3163      1.7014      1.4842
 50      0.0000      1.2211      0.5421      1.1330      0.5897      1.2434      0.0000      4.3618      0.0000
 51      0.0000      0.5873      0.3706      0.6311      0.7663      1.0283      1.6605      0.9039      0.0000
 52      0.0000      3.9747      3.6915      2.1398      5.4004      4.2352      1.6223      3.5296      0.0000
 53      0.0000      0.3589      0.0000      0.7289      1.6223      0.0000      0.0303      0.0000      0.2289
 54      0.0000      2.5159      2.4740      3.3850      2.6429      1.4332      0.0000      4.4462      3.2389
 55      0.0000      0.3101      0.0000      0.0000      0.4571      1.3334      2.2955      0.1187      1.1666
 56      0.0000      0.3539      0.6063      1.1392      0.9357      0.6908      0.0000      0.0000      0.0000
 57      0.0000      1.6195      2.1494      0.0000      1.5789      2.6522      0.5401      4.4834      2.6649
 58      0.1016      0.4635      0.0000      1.3882      0.1329      0.8427      1.6755      0.0000      2.6477
 59      0.0000      0.2603      0.0000      1.7452      0.0000      0.1466      0.0757      0.0000      0.4749
 60      0.0000      0.3324      1.9754      0.6424      1.7011      0.0000      0.0000      0.0000      0.0000
 61      0.0000      0.6700      0.3939      0.6155      0.5471      0.3507      0.3999      0.2165      1.5121
 62      0.0000      0.4098      0.2663      0.0000      0.7876      0.3897      0.4409      0.0000      0.0000
 63      0.0000      0.7964      0.4796      0.4957      0.0000      1.6534      0.0000      0.2559      0.3511
 64      1.3302      0.4844      0.4644      1.3120      1.3541      0.9387      1.5987      1.2006      0.0000
 65      3.5794      7.1993      6.1193      4.2255      8.0130      6.8418      2.8602      4.5877      3.5202
 66      0.1768      5.2608      4.8403      4.8379      4.4660      4.5265      3.9618      3.7461      4.6604

# j      m_j: min, <> & last-chain-values for 1 ...  7 chains
  1  1.6155E-01  8.7430E-03  8.6170E-03  1.0663E-02  1.0910E-02  1.3712E-02  7.2229E-03  1.4093E-02  2.3429E-02
  2  0.0000E+00  4.0633E-04  1.1748E-03  1.7179E-03  0.0000E+00  0.0000E+00  2.6572E-04  6.2322E-04  1.1290E-02
  3  0.0000E+00  5.0762E-04  0.0000E+00  0.0000E+00  1.1319E-03  5.5848E-04  0.0000E+00  0.0000E+00  1.3365E-03
  4  1.0264E-04  5.2293E-04  0.0000E+00  1.6721E-04  0.0000E+00  7.9922E-04  5.1405E-03  1.3805E-03  1.2829E-03
  5  0.0000E+00  9.8478E-04  0.0000E+00  6.0189E-03  2.4640E-03  1.0642E-03  4.5069E-03  6.5906E-03  5.5808E-03
  6  3.2736E-01  1.9513E-03  0.0000E+00  1.9940E-02  1.7594E-03  3.0896E-03  1.5783E-02  1.0356E-02  1.0469E-02
  7  0.0000E+00  2.1803E-03  0.0000E+00  1.4651E-03  3.1927E-03  0.0000E+00  4.1769E-03  2.8052E-02  0.0000E+00
  8  0.0000E+00  4.0356E-03  0.0000E+00  0.0000E+00  4.8542E-03  4.7129E-03  0.0000E+00  0.0000E+00  0.0000E+00
  9  0.0000E+00  3.9571E-03  0.0000E+00  4.4130E-03  1.1552E-02  1.2120E-02  0.0000E+00  0.0000E+00  1.3994E-02
 10  0.0000E+00  4.8454E-03  1.3519E-02  1.8885E-02  5.0169E-03  1.4303E-03  0.0000E+00  3.0959E-02  3.6285E-03
 11  0.0000E+00  1.0723E-02  1.4690E-02  0.0000E+00  0.0000E+00  8.9293E-03  1.1123E-01  1.1355E-01  0.0000E+00
 12  0.0000E+00  1.1919E-02  3.5815E-02  1.4333E-02  1.2632E-02  2.6842E-02  0.0000E+00  6.0249E-02  3.1309E-02
 13  8.4064E-02  4.2414E-02  1.9473E-01  0.0000E+00  0.0000E+00  3.0051E-02  2.1934E-01  2.7116E-01  5.6027E-01
 14  6.0312E-01  1.3973E+00  1.1405E+00  1.0567E+00  1.3605E+00  1.4521E+00  2.4703E+00  3.1431E+00  1.1179E+00
 15  0.0000E+00  6.6886E-01  9.8290E-01  1.7827E+00  5.2009E-01  2.7393E-01  0.0000E+00  7.6949E-02  0.0000E+00
 16  0.0000E+00  1.2153E+00  2.0141E+00  1.2947E+00  1.0171E+00  2.2627E+00  4.7714E+00  0.0000E+00  0.0000E+00
 17  0.0000E+00  6.9241E+00  7.2212E+00  9.6682E+00  7.2120E+00  6.8312E+00  0.0000E+00  0.0000E+00  2.0569E+00
 18  0.0000E+00  2.2942E-03  4.4003E-03  1.5108E-02  0.0000E+00  2.3151E-03  9.4599E-03  0.0000E+00  1.0663E-02
 19  0.0000E+00  2.9625E-03  5.8704E-03  1.7320E-03  2.5528E-03  4.0036E-03  5.5113E-03  1.7809E-03  0.0000E+00
 20  0.0000E+00  1.1838E-02  1.2352E-02  7.1770E-03  1.2155E-02  1.1979E-02  1.4201E-02  1.3125E-02  1.4592E-02
 21  0.0000E+00  2.9489E-02  2.9167E-02  3.5755E-02  2.1086E-02  2.1547E-02  4.4040E-02  4.0985E-02  4.6739E-02
 22  0.0000E+00  1.3668E-03  4.2596E-04  1.5168E-03  0.0000E+00  0.0000E+00  2.5061E-02  0.0000E+00  5.3434E-03
 23  0.0000E+00  1.5840E-03  1.0798E-03  0.0000E+00  0.0000E+00  2.0086E-03  0.0000E+00  5.1788E-03  0.0000E+00
 24  0.0000E+00  2.3853E-03  1.8007E-03  8.5218E-03  8.5475E-03  0.0000E+00  4.8649E-02  0.0000E+00  2.7027E-02
 25  0.0000E+00  3.5590E-03  4.1530E-03  8.6196E-03  9.9643E-04  2.1828E-03  2.8468E-02  1.8838E-02  0.0000E+00
 26  1.5010E-03  4.5570E-03  0.0000E+00  0.0000E+00  1.5460E-02  0.0000E+00  1.5579E-02  4.2333E-03  3.3213E-04
 27  0.0000E+00  1.1211E-02  6.2466E-02  1.2167E-01  0.0000E+00  0.0000E+00  1.4835E-02  6.4327E-02  0.0000E+00
 28  5.5532E-01  3.4783E-02  3.4771E-02  1.6823E-01  6.3827E-03  5.5366E-02  1.8749E-01  0.0000E+00  0.0000E+00
 29  2.6665E-01  5.0722E-02  1.1642E-01  0.0000E+00  0.0000E+00  1.5649E-01  2.9614E-01  2.9998E-01  3.3567E-01
 30  5.1186E-04  9.7122E-02  1.7772E-01  0.0000E+00  4.3982E-01  0.0000E+00  4.4326E-01  2.8409E-02  8.7354E-02
 31  0.0000E+00  2.4619E-01  5.8543E-01  0.0000E+00  1.3240E-01  8.6433E-01  5.4510E-01  1.0488E+00  2.9518E-01
 32  0.0000E+00  3.2735E-01  1.9693E-01  1.4915E+00  5.5632E-01  0.0000E+00  0.0000E+00  1.1013E+00  0.0000E+00
 33  0.0000E+00  8.1178E+00  7.2682E+00  7.7440E+00  1.0408E+01  7.6000E+00  0.0000E+00  8.8966E+00  6.3628E+00
 34  6.0166E+01  1.4477E+01  1.7930E+01  1.1170E+01  1.4108E+01  1.4326E+01  2.2098E+01  3.5512E-01  2.1964E+01
 35  6.5064E-03  1.8703E-03  4.1373E-03  4.4011E-04  7.5504E-04  1.5554E-03  6.2478E-03  0.0000E+00  1.1599E-02
 36  0.0000E+00  5.8863E-03  5.6212E-03  7.7097E-03  6.1004E-03  7.4570E-03  7.6892E-03  6.7280E-03  6.1380E-03
 37  5.4585E-04  2.5120E-03  2.6212E-03  2.9105E-03  1.3675E-03  2.2706E-03  1.0627E-02  0.0000E+00  5.7280E-03
 38  1.4017E-01  1.1308E-03  0.0000E+00  0.0000E+00  1.3102E-05  2.3835E-03  4.3977E-03  9.0314E-04  3.7252E-02
 39  2.8932E-03  1.7119E-03  0.0000E+00  4.5399E-03  2.9127E-03  2.5084E-04  4.7569E-03  0.0000E+00  1.5971E-03
 40  0.0000E+00  3.6489E-03  1.2913E-02  0.0000E+00  1.2990E-03  9.4050E-03  1.8224E-02  0.0000E+00  1.3174E-02
 41  0.0000E+00  3.6730E-03  3.1416E-02  1.0958E-02  1.3861E-03  0.0000E+00  0.0000E+00  2.2441E-02  1.8112E-02
 42  0.0000E+00  6.0699E-03  1.7906E-03  0.0000E+00  1.5382E-03  5.6530E-04  0.0000E+00  0.0000E+00  0.0000E+00
 43  0.0000E+00  9.9005E-03  1.7921E-03  4.0819E-02  1.7873E-02  3.4547E-02  0.0000E+00  8.4802E-02  0.0000E+00
 44  0.0000E+00  1.8055E-02  0.0000E+00  1.6892E-01  2.1618E-02  2.1427E-02  0.0000E+00  2.4718E-01  8.3213E-02
 45  0.0000E+00  3.9432E-02  0.0000E+00  3.5555E-02  6.6957E-02  1.1115E-01  3.3556E-02  1.4824E-01  0.0000E+00
 46  0.0000E+00  6.1880E-02  1.4458E-01  3.2442E-01  4.4953E-02  3.7393E-02  5.3713E-02  4.1029E-02  0.0000E+00
 47  0.0000E+00  1.4097E-01  0.0000E+00  6.5665E-01  5.7738E-02  4.4667E-01  7.0119E-02  1.4069E+00  3.5377E-01
 48  0.0000E+00  1.3868E+00  2.0490E+00  8.3866E-01  1.9135E+00  2.2649E+00  1.1357E+00  1.5908E+00  2.1635E+00
 49  0.0000E+00  5.0819E+00  3.6958E+00  2.9770E+00  3.9927E+00  4.1224E+00  1.2507E+01  4.4080E+00  4.2652E+00
 50  0.0000E+00  4.0831E+00  1.9948E+00  4.8280E+00  1.9897E+00  4.3997E+00  0.0000E+00  2.0931E+01  0.0000E+00
 51  0.0000E+00  1.0765E-03  7.4755E-04  1.4740E-03  1.4172E-03  1.9945E-03  4.8850E-03  2.3775E-03  0.0000E+00
 52  0.0000E+00  3.7335E-03  3.8158E-03  2.5612E-03  5.1183E-03  4.2097E-03  2.4458E-03  4.7578E-03  0.0000E+00
 53  0.0000E+00  5.0780E-04  0.0000E+00  1.3142E-03  2.3161E-03  0.0000E+00  6.8820E-05  0.0000E+00  5.1549E-04
 54  0.0000E+00  7.2939E-03  7.8931E-03  1.2506E-02  7.7313E-03  4.3969E-03  0.0000E+00  1.8499E-02  1.4947E-02
 55  0.0000E+00  1.3843E-03  0.0000E+00  0.0000E+00  2.0588E-03  6.2990E-03  1.6447E-02  7.6031E-04  8.2896E-03
 56  0.0000E+00  3.1266E-03  5.8950E-03  1.2827E-02  8.3416E-03  6.4588E-03  0.0000E+00  0.0000E+00  0.0000E+00
 57  0.0000E+00  1.8992E-02  2.7738E-02  0.0000E+00  1.8682E-02  3.2913E-02  1.0165E-02  7.5450E-02  4.9744E-02
 58  4.6338E-03  9.1935E-03  0.0000E+00  3.5088E-02  2.6594E-03  1.7688E-02  5.3341E-02  0.0000E+00  8.3599E-02
 59  0.0000E+00  1.1112E-02  0.0000E+00  9.4931E-02  0.0000E+00  6.6212E-03  5.1869E-03  0.0000E+00  3.2271E-02
 60  0.0000E+00  2.6353E-02  1.7236E-01  6.4909E-02  1.3609E-01  0.0000E+00  0.0000E+00  0.0000E+00  0.0000E+00
 61  0.0000E+00  1.1606E-01  7.5085E-02  1.3587E-01  9.5634E-02  6.4286E-02  1.1119E-01  5.3820E-02  4.1696E-01
 62  0.0000E+00  1.2944E-01  9.2554E-02  0.0000E+00  2.5101E-01  1.3027E-01  2.2355E-01  0.0000E+00  0.0000E+00
 63  0.0000E+00  5.0047E-01  3.3169E-01  3.9700E-01  0.0000E+00  1.0996E+00  0.0000E+00  2.3077E-01  3.5119E-01
 64  5.3180E+00  8.4194E-01  8.8831E-01  2.9060E+00  2.3749E+00  1.7266E+00  4.4603E+00  2.9947E+00  0.0000E+00
 65  3.0249E+01  2.6452E+01  2.4743E+01  1.9785E+01  2.9708E+01  2.6603E+01  1.6868E+01  2.4191E+01  2.0589E+01
 66  2.1112E+00  2.7308E+01  2.7648E+01  3.2001E+01  2.3391E+01  2.4864E+01  3.3007E+01  2.7905E+01  3.8507E+01

# AV, chi2 & Mass for <> & i_chain = 1 ...  7 solutions
AV       0.4784     -0.7392     -0.5377     -0.3845     -0.6294     -0.5824     -0.1509     -0.2997     -0.1248
chi2 8.7615E-06  2.6521E-05  2.3130E-05  2.2084E-05  2.3829E-05  2.3491E-05  2.0981E-05  2.1975E-05  2.1411E-05
Mass 6.8016E-13  3.0489E-13  3.6317E-13  3.8525E-13  3.5017E-13  3.5565E-13  4.1859E-13  3.8336E-13  4.3713E-13
 369.93                                  [v0_min (km/s) before EX0s...]
 100.94                                  [vd_min (km/s) before EX0s...]


## Synthetic spectrum (Best Model) ##l_obs f_obs f_syn wei
 3478    [Nl_obs]
 3741.00    0.64741   0.60366    0.000
 3742.00    0.52708   0.63962    0.000
 3743.00    0.42115   0.67708    0.000
 3744.00    0.41289   0.70886    0.000
 3745.00    0.46153   0.72947   -1.000
 3746.00    0.54119   0.73638   -1.000
 3747.00    0.63660   0.73091   -1.000
 3748.00    0.55597   0.71677   -1.000
 3749.00    0.39792   0.69717   -1.000
 3750.00    0.67667   0.67329   -1.000
 3751.00    1.12032   0.64473   -1.000
 3752.00    1.17328   0.61170   -1.000
 3753.00    1.10103   0.57957   -1.000
 3754.00    0.90910   0.56067   -1.000
 3755.00    0.68510   0.56594   -1.000
 3756.00    0.93265   0.59455   -1.000
 3757.00    1.28368   0.63518   -1.000
 3758.00    0.97803   0.67570   -1.000
 3759.00    0.55774   0.70817   -1.000
 3760.00    0.46118   0.72790   -1.000
 3761.00    0.40762   0.73428   -1.000
 3762.00    0.60132   0.73272   -1.000
 3763.00    0.81826   0.73171   -1.000
 3764.00    0.93254   0.73593   -1.000
 3765.00    1.04090   0.74302   -1.000
 3766.00    0.78057   0.74722   -1.000
 3767.00    0.51360   0.74515   -1.000
 3768.00    0.50384   0.73731   -1.000
 3769.00    0.49099   0.72474   -1.000
 3770.00    0.40299   0.70627   -1.000
 3771.00    0.31547   0.68100   -1.000
 3772.00    0.23416   0.65105   -1.000
 3773.00    0.19577   0.62041   -1.000
 3774.00    0.53421   0.59483   -1.000
 3775.00    0.81405   0.58346   -1.000
 3776.00    0.71398   0.59363   -1.000
 3777.00    0.59521   0.62245   -1.000
 3778.00    0.38178   0.65845   -1.000
 3779.00    0.28110   0.69176   -1.000
 3780.00    0.64191   0.71917   -1.000
 3781.00    0.94478   0.74129   -1.000
 3782.00    1.05120   0.75943   -1.000
 3783.00    1.10679   0.77514   -1.000
 3784.00    1.01703   0.78927   -1.000
 3785.00    0.98431   0.80080   -1.000
 3786.00    1.09095   0.80834   -1.000
 3787.00    1.18146   0.81179   -1.000
 3788.00    1.23794   0.81112   -1.000
 3789.00    1.18473   0.80527   -1.000
 3790.00    0.93058   0.79427   -1.000
 3791.00    0.85883   0.78093   -1.000
 3792.00    1.07907   0.76845   -1.000
 3793.00    1.06925   0.75794   -1.000
 3794.00    0.73630   0.74875   -1.000
 3795.00    0.53105   0.73921   -1.000
 3796.00    0.48365   0.72614   -1.000
 3797.00    0.37450   0.70574   -1.000
 3798.00    0.19807   0.67628   -1.000
 3799.00    0.21634   0.63932   -1.000
 3800.00    0.42170   0.59850   -1.000
 3801.00    0.62776   0.55993   -1.000
 3802.00    0.83442   0.53404   -1.000
 3803.00    0.84848   0.53235   -1.000
 3804.00    0.71884   0.55796   -1.000
 3805.00    0.68317   0.60145   -1.000
 3806.00    0.70912   0.64849   -1.000
 3807.00    0.75989   0.68914   -1.000
 3808.00    0.82490   0.71913   -1.000
 3809.00    0.87666   0.73737   -1.000
 3810.00    0.92180   0.74629   -1.000
 3811.00    0.78991   0.75228   -1.000
 3812.00    0.58148   0.76162   -1.000
 3813.00    0.59646   0.77521   -1.000
 3814.00    0.69430   0.78873   -1.000
 3815.00    0.89890   0.79712   -1.000
 3816.00    1.13705   0.79785   -1.000
 3817.00    0.86373   0.79161   -1.000
 3818.00    0.45623   0.78156   -1.000
 3819.00    0.42991   0.77132   -1.000
 3820.00    0.48526   0.76234   -1.000
 3821.00    0.66128   0.75213   -1.000
 3822.00    0.85779   0.73546   -1.000
 3823.00    0.53687   0.71168   -1.000
 3824.00    0.14956   0.69136   -1.000
 3825.00    0.34131   0.68848   -1.000
 3826.00    0.58504   0.70392   -1.000
 3827.00    0.41565   0.72351   -1.000
 3828.00    0.22407   0.73327   -1.000
 3829.00    0.46642   0.73079   -1.000
 3830.00    0.71352   0.72205   -1.000
 3831.00    0.62651   0.71246   -1.000
 3832.00    0.54680   0.70289   -1.000
 3833.00    0.62917   0.69135   -1.000
 3834.00    0.70110   0.67519   -1.000
 3835.00    0.64328   0.65159   -1.000
 3836.00    0.58571   0.61871   -1.000
 3837.00    0.53031   0.57831   -1.000
 3838.00    0.51210   0.53715   -1.000
 3839.00    0.72789   0.50583   -1.000
 3840.00    0.94546   0.49427   -1.000
 3841.00    1.17180   0.50536   -1.000
 3842.00    1.28027   0.53313   -1.000
 3843.00    0.91695   0.56831   -1.000
 3844.00    0.61895   0.60460   -1.000
 3845.00    0.53811   0.63964   -1.000
 3846.00    0.53833   0.67259   -1.000
 3847.00    0.76619   0.70187    0.000
 3848.00    0.89043   0.72513    0.000
 3849.00    0.76581   0.74137    0.000
 3850.00    0.66795   0.75199    0.000
 3851.00    0.62559   0.75911    0.000
 3852.00    0.63322   0.76349    0.000
 3853.00    0.73103   0.76487    0.000
 3854.00    0.78542   0.76453    0.000
 3855.00    0.77134   0.76555    0.000
 3856.00    0.79028   0.76919    0.000
 3857.00    0.85492   0.77290    0.000
 3858.00    0.88146   0.77334    0.000
 3859.00    0.86158   0.77002    0.000
 3860.00    0.78601   0.76516    0.000
 3861.00    0.65064   0.76111    0.000
 3862.00    0.61203   0.75812    0.000
 3863.00    0.66511   0.75514    0.000
 3864.00    0.70248   0.75299    0.000
 3865.00    0.72673   0.75465    0.000
 3866.00    0.67565   0.76109    0.000
 3867.00    0.56917   0.76893    0.000
 3868.00    0.54451   0.77354    0.000
 3869.00    0.57268   0.77289    0.000
 3870.00    0.54961   0.76798    0.000
 3871.00    0.49757   0.76138    0.000
 3872.00    0.50786   0.75609    0.000
 3873.00    0.54879   0.75313    0.000
 3874.00    0.63323   0.74965    0.000
 3875.00    0.73615   0.74277    0.000
 3876.00    0.73761   0.73531    0.000
 3877.00    0.70211   0.73384    0.000
 3878.00    0.75194   0.74029    0.000
 3879.00    0.82807   0.74871    0.000
 3880.00    0.82441   0.75129    0.000
 3881.00    0.80027   0.74547   -1.000
 3882.00    0.72621   0.73482   -1.000
 3883.00    0.64172   0.72457   -1.000
 3884.00    0.58315   0.71656   -1.000
 3885.00    0.52886   0.70826   -1.000
 3886.00    0.60550   0.69706   -1.000
 3887.00    0.69835   0.68347   -1.000
 3888.00    0.83128   0.66750   -1.000
 3889.00    0.96765   0.64482   -1.000
 3890.00    0.89228   0.61122   -1.000
 3891.00    0.80635   0.56927   -1.000
 3892.00    0.76810   0.52861   -1.000
 3893.00    0.73171   0.50203   -1.000
 3894.00    0.76515   0.50054   -1.000
 3895.00    0.79694   0.52633   -1.000
 3896.00    0.79499   0.56934   -1.000
 3897.00    0.79426   0.61415   -1.000
 3898.00    0.80785   0.65054   -1.000
 3899.00    0.80201   0.67702   -1.000
 3900.00    0.63783   0.69720   -1.000
 3901.00    0.48472   0.71408   -1.000
 3902.00    0.39920   0.72747   -1.000
 3903.00    0.35294   0.73668   -1.000
 3904.00    0.49562   0.74378   -1.000
 3905.00    0.59640   0.75148   -1.000
 3906.00    0.53308   0.75928   -1.000
 3907.00    0.49543   0.76452   -1.000
 3908.00    0.54147   0.76620   -1.000
 3909.00    0.58682   0.76560   -1.000
 3910.00    0.63027   0.76527   -1.000
 3911.00    0.66726   0.76827   -1.000
 3912.00    0.68900   0.77592   -1.000
 3913.00    0.72814   0.78577   -1.000
 3914.00    0.80279   0.79386   -1.000
 3915.00    0.85141   0.79840   -1.000
 3916.00    0.85376   0.80031   -1.000
 3917.00    0.85550   0.80097   -1.000
 3918.00    0.85627   0.80081   -1.000
 3919.00    0.84570   0.79960   -1.000
 3920.00    0.81966   0.79689   -1.000
 3921.00    0.79920   0.79200   -1.000
 3922.00    0.78543   0.78413   -1.000
 3923.00    0.73917   0.77314   -1.000
 3924.00    0.65851   0.76099   -1.000
 3925.00    0.60581   0.75174   -1.000
 3926.00    0.57923   0.74840   -1.000
 3927.00    0.58162   0.74969   -1.000
 3928.00    0.60788   0.75090   -1.000
 3929.00    0.61470   0.74766   -1.000
 3930.00    0.60741   0.73899   -1.000
 3931.00    0.56789   0.72792   -1.000
 3932.00    0.50785   0.71872   -1.000
 3933.00    0.48459   0.71272   -1.000
 3934.00    0.48179   0.70775   -1.000
 3935.00    0.54558   0.70114   -1.000
 3936.00    0.64161   0.69196   -1.000
 3937.00    0.65377   0.68178   -1.000
 3938.00    0.63086   0.67435   -1.000
 3939.00    0.71040   0.67358   -1.000
 3940.00    0.82659   0.68064   -1.000
 3941.00    0.89610   0.69338   -1.000
 3942.00    0.95151   0.70829   -1.000
 3943.00    0.84253   0.72247   -1.000
 3944.00    0.69227   0.73398   -1.000
 3945.00    0.76379   0.74159   -1.000
 3946.00    0.88052   0.74495   -1.000
 3947.00    0.90943   0.74498   -1.000
 3948.00    0.92428   0.74430   -1.000
 3949.00    0.89520   0.74636   -1.000
 3950.00    0.86087   0.75263   -1.000
 3951.00    0.89672   0.76046   -1.000
 3952.00    0.93828   0.76616   -1.000
 3953.00    0.90772   0.76946   -1.000
 3954.00    0.87385   0.77248   -1.000
 3955.00    0.85837   0.77523   -1.000
 3956.00    0.84282   0.77556   -1.000
 3957.00    0.81213   0.77317   -1.000
 3958.00    0.78510   0.77033   -1.000
 3959.00    0.82769   0.76791   -1.000
 3960.00    0.86519   0.76416    0.000
 3961.00    0.84534   0.75826    0.000
 3962.00    0.82213   0.75177    0.000
 3963.00    0.77247   0.74483    0.000
 3964.00    0.73609   0.73388    0.000
 3965.00    0.77854   0.71546    0.000
 3966.00    0.80066   0.69072    0.000
 3967.00    0.72734   0.66384    0.000
 3968.00    0.65205   0.63676    0.000
 3969.00    0.56922   0.60816    0.000
 3970.00    0.54828   0.57637    0.000
 3971.00    0.72515   0.54052    0.000
 3972.00    0.83972   0.50089    0.000
 3973.00    0.78560   0.46200    0.000
 3974.00    0.70495   0.43441    0.000
 3975.00    0.56270   0.42963    0.000
 3976.00    0.52368   0.45135    0.000
 3977.00    0.69201   0.49227    0.000
 3978.00    0.84222   0.54033    0.000
 3979.00    0.96071   0.58664    0.000
 3980.00    1.00721   0.62725    0.000
 3981.00    0.94351   0.66122   -1.000
 3982.00    0.89561   0.68938   -1.000
 3983.00    0.86894   0.71301   -1.000
 3984.00    0.87978   0.73205   -1.000
 3985.00    0.93504   0.74518   -1.000
 3986.00    1.00880   0.75212   -1.000
 3987.00    1.10186   0.75541   -1.000
 3988.00    1.13229   0.75917   -1.000
 3989.00    1.10501   0.76567   -1.000
 3990.00    1.06614   0.77396   -1.000
 3991.00    1.01786   0.78200   -1.000
 3992.00    0.98718   0.78865   -1.000
 3993.00    0.96907   0.79329   -1.000
 3994.00    0.97380   0.79567   -1.000
 3995.00    0.99285   0.79702   -1.000
 3996.00    0.98210   0.79923   -1.000
 3997.00    0.95503   0.80182   -1.000
 3998.00    0.87236   0.80226   -1.000
 3999.00    0.76320   0.79941   -1.000
 4000.00    0.75374   0.79483   -1.000
 4001.00    0.78527   0.79117   -1.000
 4002.00    0.89914   0.79056   -1.000
 4003.00    1.04194   0.79428   -1.000
 4004.00    0.97309   0.80159   -1.000
 4005.00    0.84154   0.80930   -1.000
 4006.00    0.82779   0.81408   -1.000
 4007.00    0.84297   0.81438   -1.000
 4008.00    0.83251   0.80912   -1.000
 4009.00    0.81695   0.79821   -1.000
 4010.00    0.92417   0.78561   -1.000
 4011.00    1.05047   0.77728   -1.000
 4012.00    1.14379   0.77486   -1.000
 4013.00    1.23331   0.77542   -1.000
 4014.00    1.08199   0.77777   -1.000
 4015.00    0.91204   0.78365   -1.000
 4016.00    0.95069   0.79288   -1.000
 4017.00    0.99812   0.80225   -1.000
 4018.00    1.01101   0.80944   -1.000
 4019.00    1.02163   0.81428   -1.000
 4020.00    0.94684   0.81698   -1.000
 4021.00    0.87541   0.81733   -1.000
 4022.00    0.86325   0.81617   -1.000
 4023.00    0.86579   0.81558   -1.000
 4024.00    1.02655   0.81578   -1.000
 4025.00    1.16289   0.81409   -1.000
 4026.00    1.11387   0.80797   -1.000
 4027.00    1.04408   0.79641   -1.000
 4028.00    0.85445   0.77871   -1.000
 4029.00    0.70800   0.75639   -1.000
 4030.00    0.75944   0.73714   -1.000
 4031.00    0.81460   0.73194   -1.000
 4032.00    0.88371   0.74445   -1.000
 4033.00    0.93647   0.76478   -1.000
 4034.00    0.93799   0.77809   -1.000
 4035.00    0.94695   0.77883   -1.000
 4036.00    0.97572   0.77283   -1.000
 4037.00    1.00000   0.76809   -1.000
 4038.00    1.01403   0.76842   -1.000
 4039.00    1.03699   0.77488   -1.000
 4040.00    1.07759   0.78737   -1.000
 4041.00    1.09435   0.80345   -1.000
 4042.00    1.07003   0.81789   -1.000
 4043.00    1.04016   0.82556   -1.000
 4044.00    1.00192   0.82525   -1.000
 4045.00    0.97735   0.82018   -1.000
 4046.00    0.97091   0.81432   -1.000
 4047.00    0.94306   0.80763   -1.000
 4048.00    0.89020   0.79616   -1.000
 4049.00    0.90175   0.77919   -1.000
 4050.00    0.97962   0.76423   -1.000
 4051.00    1.00930   0.76126   -1.000
 4052.00    0.99523   0.77236   -1.000
 4053.00    1.00714   0.78976   -1.000
 4054.00    1.03983   0.80463   -1.000
 4055.00    1.08667   0.81326   -1.000
 4056.00    1.14347   0.81542   -1.000
 4057.00    1.15733   0.81217   -1.000
 4058.00    1.14467   0.80577   -1.000
 4059.00    1.01194   0.79883   -1.000
 4060.00    0.81442   0.79321   -1.000
 4061.00    0.77319   0.78920   -1.000
 4062.00    0.80520   0.78634   -1.000
 4063.00    0.80822   0.78562   -1.000
 4064.00    0.79953   0.78789   -1.000
 4065.00    0.76579   0.79018   -1.000
 4066.00    0.72341   0.78709   -1.000
 4067.00    0.81066   0.77689   -1.000
 4068.00    0.93555   0.76538   -1.000
 4069.00    0.99986   0.76110   -1.000
 4070.00    1.04962   0.76579   -1.000
 4071.00    1.03120   0.77360   -1.000
 4072.00    0.99956   0.77981   -1.000
 4073.00    0.93408   0.78350   -1.000
 4074.00    0.86350   0.78321   -1.000
 4075.00    0.86564   0.77730   -1.000
 4076.00    0.87582   0.76912   -1.000
 4077.00    0.96829   0.76583   -1.000
 4078.00    1.06678   0.76906   -1.000
 4079.00    0.96414   0.77142   -1.000
 4080.00    0.85381   0.76619   -1.000
 4081.00    0.82142   0.75586   -1.000
 4082.00    0.79413   0.74890   -1.000
 4083.00    0.94324   0.75157   -1.000
 4084.00    1.08176   0.76351   -1.000
 4085.00    1.04581   0.77866   -1.000
 4086.00    1.00247   0.78935   -1.000
 4087.00    0.88310   0.79111   -1.000
 4088.00    0.79170   0.78557   -1.000
 4089.00    0.90557   0.77856   -1.000
 4090.00    1.01972   0.77547   -1.000
 4091.00    1.13543   0.77789   -1.000
 4092.00    1.20644   0.78330    0.000
 4093.00    1.07745   0.78726    0.000
 4094.00    0.96057   0.78690    0.000
 4095.00    0.88815   0.78210    0.000
 4096.00    0.84421   0.77403    0.000
 4097.00    0.88787   0.76400    0.000
 4098.00    0.92047   0.75223    0.000
 4099.00    0.92419   0.73638    0.000
 4100.00    0.89373   0.71424    0.000
 4101.00    0.78652   0.68747    0.000
 4102.00    0.71160   0.65899    0.000
 4103.00    0.69951   0.62816    0.000
 4104.00    0.71698   0.59186    0.000
 4105.00    0.78459   0.55204    0.000
 4106.00    0.83429   0.52081    0.000
 4107.00    0.85734   0.51350    0.000
 4108.00    0.90520   0.53437    0.000
 4109.00    0.98545   0.57370    0.000
 4110.00    0.98789   0.61751    0.000
 4111.00    0.90078   0.65583    0.000
 4112.00    0.88306   0.68426    0.000
 4113.00    0.93577   0.70270   -1.000
 4114.00    0.92841   0.71374   -1.000
 4115.00    0.86726   0.72124   -1.000
 4116.00    0.86099   0.72884   -1.000
 4117.00    0.89803   0.73845   -1.000
 4118.00    0.91816   0.74933   -1.000
 4119.00    0.92656   0.75903   -1.000
 4120.00    0.96807   0.76559   -1.000
 4121.00    1.02972   0.76803   -1.000
 4122.00    1.01853   0.76534   -1.000
 4123.00    0.96864   0.75781   -1.000
 4124.00    0.89006   0.74884   -1.000
 4125.00    0.79825   0.74342   -1.000
 4126.00    0.79356   0.74476   -1.000
 4127.00    0.82346   0.75232   -1.000
 4128.00    0.83853   0.76296   -1.000
 4129.00    0.84858   0.77298   -1.000
 4130.00    0.84645   0.77896   -1.000
 4131.00    0.84086   0.77901   -1.000
 4132.00    0.86796   0.77427   -1.000
 4133.00    0.90274   0.76801   -1.000
 4134.00    0.89374   0.76226   -1.000
 4135.00    0.87647   0.75643   -1.000
 4136.00    0.91715   0.74989   -1.000
 4137.00    0.96628   0.74465   -1.000
 4138.00    0.95295   0.74426   -1.000
 4139.00    0.93298   0.75052   -1.000
 4140.00    0.87033   0.76150   -1.000
 4141.00    0.80473   0.77255   -1.000
 4142.00    0.77015   0.78033   -1.000
 4143.00    0.73663   0.78423   -1.000
 4144.00    0.84896   0.78386   -1.000
 4145.00    0.95847   0.77674   -1.000
 4146.00    0.96547   0.75941   -1.000
 4147.00    0.96711   0.73329   -1.000
 4148.00    0.88584   0.70958   -1.000
 4149.00    0.81810   0.70226   -1.000
 4150.00    0.88384   0.71441   -1.000
 4151.00    0.92895   0.73601   -1.000
 4152.00    0.82761   0.75427   -1.000
 4153.00    0.72901   0.76291   -1.000
 4154.00    0.64534   0.76356   -1.000
 4155.00    0.59763   0.76113   -1.000
 4156.00    0.70714   0.75877   -1.000
 4157.00    0.77974   0.75678   -1.000
 4158.00    0.71962   0.75482   -1.000
 4159.00    0.68518   0.75337   -1.000
 4160.00    0.72822   0.75328   -1.000
 4161.00    0.76210   0.75534   -1.000
 4162.00    0.77247   0.76011   -1.000
 4163.00    0.80776   0.76689   -1.000
 4164.00    0.89809   0.77357   -1.000
 4165.00    0.92774   0.77833   -1.000
 4166.00    0.84114   0.78123   -1.000
 4167.00    0.80359   0.78288   -1.000
 4168.00    0.84805   0.78275   -1.000
 4169.00    0.89209   0.78017   -1.000
 4170.00    0.93555   0.77533   -1.000
 4171.00    0.96586   0.76914   -1.000
 4172.00    0.97925   0.76333   -1.000
 4173.00    0.94493   0.76000   -1.000
 4174.00    0.85647   0.75927   -1.000
 4175.00    0.77398   0.75797   -1.000
 4176.00    0.69746   0.75261   -1.000
 4177.00    0.72014   0.74416   -1.000
 4178.00    0.83039   0.73762   -1.000
 4179.00    0.84059   0.73655   -1.000
 4180.00    0.77296   0.73975   -1.000
 4181.00    0.79422   0.74351   -1.000
 4182.00    0.87627   0.74600   -1.000
 4183.00    0.85248   0.74831   -1.000
 4184.00    0.76525   0.75145   -1.000
 4185.00    0.75292   0.75424   -1.000
 4186.00    0.77977   0.75540   -1.000
 4187.00    0.80972   0.75587   -1.000
 4188.00    0.84109   0.75756   -1.000
 4189.00    0.87571   0.76031   -1.000
 4190.00    0.91161   0.76114   -1.000
 4191.00    0.87223   0.75776   -1.000
 4192.00    0.80785   0.75240   -1.000
 4193.00    0.74787   0.74945   -1.000
 4194.00    0.68912   0.75059   -1.000
 4195.00    0.72682   0.75418   -1.000
 4196.00    0.78664   0.75870   -1.000
 4197.00    0.79984   0.76365   -1.000
 4198.00    0.80446   0.76702   -1.000
 4199.00    0.78404   0.76535   -1.000
 4200.00    0.76007   0.75736   -1.000
 4201.00    0.75030   0.74553   -1.000
 4202.00    0.74199   0.73386   -1.000
 4203.00    0.78665   0.72541   -1.000
 4204.00    0.83477   0.72132   -1.000
 4205.00    0.86213   0.72081   -1.000
 4206.00    0.88871   0.72274   -1.000
 4207.00    0.82488   0.72699   -1.000
 4208.00    0.76571   0.73362   -1.000
 4209.00    0.84361   0.74196   -1.000
 4210.00    0.91136   0.75088   -1.000
 4211.00    0.83117   0.75939   -1.000
 4212.00    0.76054   0.76637   -1.000
 4213.00    0.78017   0.77037   -1.000
 4214.00    0.80167   0.77084   -1.000
 4215.00    0.83595   0.76944   -1.000
 4216.00    0.85698   0.76818   -1.000
 4217.00    0.80752   0.76672   -1.000
 4218.00    0.77436   0.76255   -1.000
 4219.00    0.81084   0.75468   -1.000
 4220.00    0.83227   0.74707   -1.000
 4221.00    0.80071   0.74600   -1.000
 4222.00    0.76912   0.75358   -1.000
 4223.00    0.73745   0.76583   -1.000
 4224.00    0.69916   0.77655   -1.000
 4225.00    0.64418   0.78150   -1.000
 4226.00    0.62470   0.77907   -1.000
 4227.00    0.68236   0.76906   -1.000
 4228.00    0.72615   0.75212   -1.000
 4229.00    0.74378   0.72994   -1.000
 4230.00    0.74673   0.70632   -1.000
 4231.00    0.72549   0.68855   -1.000
 4232.00    0.72711   0.68487   -1.000
 4233.00    0.76173   0.69778   -1.000
 4234.00    0.78879   0.72086   -1.000
 4235.00    0.80624   0.74307   -1.000
 4236.00    0.78289   0.75596   -1.000
 4237.00    0.71390   0.75814   -1.000
 4238.00    0.68063   0.75380   -1.000
 4239.00    0.68260   0.74765   -1.000
 4240.00    0.70970   0.74234   -1.000
 4241.00    0.75868   0.73911   -1.000
 4242.00    0.77868   0.73859   -1.000
 4243.00    0.77648   0.74092   -1.000
 4244.00    0.78710   0.74557   -1.000
 4245.00    0.80635   0.75141   -1.000
 4246.00    0.78571   0.75757   -1.000
 4247.00    0.74152   0.76397   -1.000
 4248.00    0.75369   0.77072   -1.000
 4249.00    0.79487   0.77648   -1.000
 4250.00    0.82123   0.77819   -1.000
 4251.00    0.84098   0.77344   -1.000
 4252.00    0.81762   0.76312   -1.000
 4253.00    0.77772   0.75094   -1.000
 4254.00    0.75599   0.74059   -1.000
 4255.00    0.74018   0.73438   -1.000
 4256.00    0.78883   0.73264   -1.000
 4257.00    0.85507   0.73294   -1.000
 4258.00    0.87730   0.73230   -1.000
 4259.00    0.88966   0.73099   -1.000
 4260.00    0.81925   0.73271   -1.000
 4261.00    0.73404   0.73924   -1.000
 4262.00    0.76790   0.74607   -1.000
 4263.00    0.81804   0.74648   -1.000
 4264.00    0.84298   0.73933   -1.000
 4265.00    0.86545   0.73113   -1.000
 4266.00    0.81636   0.73027   -1.000
 4267.00    0.76290   0.73950   -1.000
 4268.00    0.81954   0.75428   -1.000
 4269.00    0.87856   0.76699   -1.000
 4270.00    0.82327   0.77185   -1.000
 4271.00    0.76794   0.76799   -1.000
 4272.00    0.71152   0.75872   -1.000
 4273.00    0.65861   0.74762   -1.000
 4274.00    0.65405   0.73569   -1.000
 4275.00    0.65642   0.72220   -1.000
 4276.00    0.72185   0.70829   -1.000
 4277.00    0.77452   0.69796   -1.000
 4278.00    0.74214   0.69449   -1.000
 4279.00    0.70839   0.69795    1.052
 4280.00    0.66756   0.70690    0.147
 4281.00    0.63896   0.72022    0.087
 4282.00    0.66142   0.73561   -2.000
 4283.00    0.69409   0.74767   -2.000
 4284.00    0.76204   0.75167   -2.000
 4285.00    0.82296   0.74838   -2.000
 4286.00    0.86347   0.74284   -2.000
 4287.00    0.85715   0.73945   -2.000
 4288.00    0.73470   0.73848   -2.000
 4289.00    0.63273   0.73730   -2.000
 4290.00    0.57455   0.73456   -2.000
 4291.00    0.57676   0.73068   -2.000
 4292.00    0.69113   0.72560   -2.000
 4293.00    0.79480   0.71822   -2.000
 4294.00    0.88113   0.70908   -2.000
 4295.00    0.84753   0.70259   -2.000
 4296.00    0.64334   0.70384   -2.000
 4297.00    0.53180   0.71236   -2.000
 4298.00    0.53623   0.72191    0.084
 4299.00    0.57373   0.72673    0.085
 4300.00    0.64770   0.72572    0.086
 4301.00    0.63626   0.72051    0.086
 4302.00    0.54172   0.71158    0.085
 4303.00    0.47870   0.69852    0.084
 4304.00    0.44272   0.68382    0.084
 4305.00    0.44298   0.67226    0.083
 4306.00    0.47064   0.66688    0.083
 4307.00    0.55325   0.66694    0.084
 4308.00    0.67236   0.66920    0.085
 4309.00    0.73421   0.67099    0.087
 4310.00    0.76277   0.67079    0.087
 4311.00    0.72297   0.66708    0.086
 4312.00    0.64851   0.66018    0.085
 4313.00    0.66809   0.65369    0.084
 4314.00    0.72892   0.65231    0.083
 4315.00    0.74682   0.65838    0.083
 4316.00    0.74856   0.67020    0.084
 4317.00    0.77045   0.68413    0.085
 4318.00    0.79879   0.69841    0.085
 4319.00    0.80025   0.71434    0.085
 4320.00    0.79453   0.73347    0.085
 4321.00    0.77678   0.75431    0.085
 4322.00    0.75641   0.77178    0.085
 4323.00    0.69036   0.78065    0.084
 4324.00    0.61636   0.78014    0.083
 4325.00    0.67916   0.77345    0.084
 4326.00    0.76006   0.76290    0.087
 4327.00    0.73331   0.74798    0.087
 4328.00    0.69650   0.72750    0.087
 4329.00    0.69224   0.70361    0.086
 4330.00    0.68984   0.68417    0.000
 4331.00    0.69938   0.67857    0.000
 4332.00    0.70949   0.68970    0.000
 4333.00    0.75211   0.71038    0.000
 4334.00    0.79371   0.72830    0.000
 4335.00    0.81063   0.73585    0.000
 4336.00    0.82600   0.73428    0.000
 4337.00    0.82108   0.72904    0.000
 4338.00    0.81698   0.72317    0.000
 4339.00    0.82001   0.71502    0.000
 4340.00    0.80800   0.69981    0.000
 4341.00    0.69887   0.67270    0.000
 4342.00    0.62429   0.63213    0.000
 4343.00    0.72397   0.58325    0.000
 4344.00    0.82069   0.53801    0.000
 4345.00    0.90527   0.50969    0.000
 4346.00    0.94984   0.50701    0.000
 4347.00    0.85908   0.53017    0.000
 4348.00    0.76189   0.56887    0.000
 4349.00    0.64637   0.60880    0.000
 4350.00    0.60675   0.64220    0.000
 4351.00    0.75217   0.66863    0.085
 4352.00    0.82663   0.68947    0.085
 4353.00    0.75183   0.70536    0.084
 4354.00    0.71371   0.71489    0.100
 4355.00    0.74269   0.71510    0.264
 4356.00    0.76783   0.70690   -1.000
 4357.00    0.78686   0.69827   -1.000
 4358.00    0.80443   0.69856   -1.000
 4359.00    0.81994   0.70956   -1.000
 4360.00    0.82027   0.72516   -1.000
 4361.00    0.80187   0.73880   -1.000
 4362.00    0.79939   0.74727    0.327
 4363.00    0.81424   0.74995    0.106
 4364.00    0.80291   0.74912    0.080
 4365.00    0.76648   0.74978    0.081
 4366.00    0.77339   0.75513    0.082
 4367.00    0.81695   0.76346    0.083
 4368.00    0.80711   0.77123    0.082
 4369.00    0.75750   0.77649    0.080
 4370.00    0.75378   0.77811    0.079
 4371.00    0.78010   0.77452    0.080
 4372.00    0.82337   0.76603    0.081
 4373.00    0.87636   0.75708    0.082
 4374.00    0.82184   0.75235    0.081
 4375.00    0.71370   0.75194    0.080
 4376.00    0.71217   0.75207    0.080
 4377.00    0.75665   0.74926    0.080
 4378.00    0.74918   0.74228    0.080
 4379.00    0.72249   0.73309    0.079
 4380.00    0.66015   0.72711    0.078
 4381.00    0.58662   0.72939    0.078
 4382.00    0.62655   0.73951    0.077
 4383.00    0.69615   0.75103    0.077
 4384.00    0.69871   0.75664    0.077
 4385.00    0.68695   0.75256    0.078
 4386.00    0.67418   0.73829    0.077
 4387.00    0.66123   0.71539    0.076
 4388.00    0.69311   0.68912    0.077
 4389.00    0.73071   0.66922    0.077
 4390.00    0.75775   0.66383    0.077
 4391.00    0.78386   0.67106    0.077
 4392.00    0.74175   0.68140    0.077
 4393.00    0.69601   0.68862    0.077
 4394.00    0.75253   0.69501    0.077
 4395.00    0.81068   0.70439    0.078
 4396.00    0.83865   0.71592    0.077
 4397.00    0.86268   0.72684    0.076
 4398.00    0.80014   0.73475    0.075
 4399.00    0.73956   0.73879    0.075
 4400.00    0.70315   0.74179    0.075
 4401.00    0.66702   0.74775    0.076
 4402.00    0.63328   0.75639    0.075
 4403.00    0.60690   0.76192    0.074
 4404.00    0.62669   0.75994    0.073
 4405.00    0.64150   0.75294    0.073
 4406.00    0.63187   0.74619    0.073
 4407.00    0.63174   0.74130    0.074
 4408.00    0.66955   0.73449    0.075
 4409.00    0.70301   0.72261    0.076
 4410.00    0.72202   0.71033    0.076
 4411.00    0.72675   0.70570    0.076
 4412.00    0.69146   0.71007    0.076
 4413.00    0.67513   0.71912    0.076
 4414.00    0.70420   0.73080    0.075
 4415.00    0.73190   0.74532    0.074
 4416.00    0.75676   0.75966    0.074
 4417.00    0.76899   0.76778    0.075
 4418.00    0.75847   0.76549    0.074
 4419.00    0.75003   0.75316    0.075
 4420.00    0.74484   0.73716    0.075
 4421.00    0.71711   0.72786    0.075
 4422.00    0.65826   0.73127    0.074
 4423.00    0.64629   0.74415    0.073
 4424.00    0.69135   0.75868    0.074
 4425.00    0.75054   0.76764    0.075
 4426.00    0.82488   0.76775    0.075
 4427.00    0.84450   0.76162    0.076
 4428.00    0.81235   0.75515    0.076
 4429.00    0.78722   0.75257    0.076
 4430.00    0.76792   0.75321    0.077
 4431.00    0.78963   0.75423    0.077
 4432.00    0.84144   0.75462    0.076
 4433.00    0.82250   0.75465    0.076
 4434.00    0.75796   0.75416    0.076
 4435.00    0.72151   0.75269    0.075
 4436.00    0.70090   0.75107    0.075
 4437.00    0.67759   0.74975    0.076
 4438.00    0.65294   0.74601    0.076
 4439.00    0.69921   0.73822    0.076
 4440.00    0.77557   0.73029    0.077
 4441.00    0.84134   0.72899    0.077
 4442.00    0.90325   0.73753    0.077
 4443.00    0.87034   0.75215    0.077
 4444.00    0.80826   0.76483    0.077
 4445.00    0.80017   0.76859    0.077
 4446.00    0.80592   0.76199    0.078
 4447.00    0.75613   0.75064    0.077
 4448.00    0.69477   0.74315    0.075
 4449.00    0.74723   0.74491    0.076
 4450.00    0.81838   0.75465    0.078
 4451.00    0.79213   0.76594    0.077
 4452.00    0.75388   0.77300    0.075
 4453.00    0.73063   0.77513    0.075
 4454.00    0.70867   0.77454    0.074
 4455.00    0.70622   0.77237    0.074
 4456.00    0.70474   0.76910    0.073
 4457.00    0.72214   0.76439    0.074
 4458.00    0.74000   0.75647    0.076
 4459.00    0.76810   0.74499    0.075
 4460.00    0.79415   0.73315    0.074
 4461.00    0.77879   0.72555    0.000
 4462.00    0.76635   0.72352    0.000
 4463.00    0.78812   0.72398    0.000
 4464.00    0.80110   0.72349    0.000
 4465.00    0.74281   0.72152    0.000
 4466.00    0.69360   0.72005    0.000
 4467.00    0.69968   0.72195    0.000
 4468.00    0.70361   0.72901    0.000
 4469.00    0.69719   0.73867    0.000
 4470.00    0.70865   0.74570    0.000
 4471.00    0.78988   0.74739    0.000
 4472.00    0.85664   0.74395    0.000
 4473.00    0.87634   0.73604    0.000
 4474.00    0.87781   0.72440    0.000
 4475.00    0.82910   0.71201    0.000
 4476.00    0.77071   0.70472    0.000
 4477.00    0.68951   0.70861    0.000
 4478.00    0.65498   0.72470    0.000
 4479.00    0.71549   0.74638    0.000
 4480.00    0.77204   0.76549    0.000
 4481.00    0.82157   0.77882    0.000
 4482.00    0.82429   0.78635    0.075
 4483.00    0.75442   0.78673    0.074
 4484.00    0.73620   0.77794    0.073
 4485.00    0.78833   0.76191    0.074
 4486.00    0.79888   0.74636    0.074
 4487.00    0.75958   0.74025    0.073
 4488.00    0.75175   0.74717    0.073
 4489.00    0.77718   0.76281    0.073
 4490.00    0.78310   0.77883    0.073
 4491.00    0.77083   0.78834    0.073
 4492.00    0.77567   0.78820    0.073
 4493.00    0.79458   0.77971    0.072
 4494.00    0.82808   0.76824    0.073
 4495.00    0.87213   0.76048    0.074
 4496.00    0.88755   0.75978    0.075
 4497.00    0.88477   0.76333    0.075
 4498.00    0.84294   0.76487    0.074
 4499.00    0.77941   0.76089    0.073
 4500.00    0.78331   0.75436    0.072
 4501.00    0.81979   0.75135    0.073
 4502.00    0.80321   0.75524    0.072
 4503.00    0.76448   0.76442    0.072
 4504.00    0.76484   0.77379    0.072
 4505.00    0.77915   0.77939    0.071
 4506.00    0.83004   0.78170    0.072
 4507.00    0.89195   0.78533    0.074
 4508.00    0.80782   0.79351    0.072
 4509.00    0.68711   0.80348    0.070
 4510.00    0.73895   0.80986    0.070
 4511.00    0.82586   0.81006    0.071
 4512.00    0.83765   0.80587    0.071
 4513.00    0.83745   0.80147    0.072
 4514.00    0.79075   0.79956    0.071
 4515.00    0.73852   0.79943    0.070
 4516.00    0.77196   0.79812    0.071
 4517.00    0.81233   0.79336    0.072
 4518.00    0.81200   0.78602    0.071
 4519.00    0.80983   0.77905    0.070
 4520.00    0.78793   0.77490    0.070
 4521.00    0.76653   0.77386    0.070
 4522.00    0.78327   0.77411    0.069
 4523.00    0.79762   0.77493    0.068
 4524.00    0.76741   0.77758    0.068
 4525.00    0.74428   0.78185    0.068
 4526.00    0.80056   0.78508    0.068
 4527.00    0.84556   0.78375    0.069
 4528.00    0.80235   0.77741    0.069
 4529.00    0.75428   0.76868    0.069
 4530.00    0.67744   0.75872    0.068
 4531.00    0.63421   0.74744    0.068
 4532.00    0.74831   0.73545    0.069
 4533.00    0.82630   0.72492    0.069
 4534.00    0.76631   0.71906    0.070
 4535.00    0.73016   0.71961    0.070
 4536.00    0.77001   0.72490    0.069
 4537.00    0.80185   0.73112    0.068
 4538.00    0.81201   0.73373    0.068
 4539.00    0.81585   0.73206    0.068
 4540.00    0.80502   0.73090    0.068
 4541.00    0.80547   0.73628    0.068
 4542.00    0.82854   0.74902    0.068
 4543.00    0.80971   0.76207    0.068
 4544.00    0.71775   0.76792    0.068
 4545.00    0.69617   0.76526    0.068
 4546.00    0.78215   0.75910    0.068
 4547.00    0.81668   0.75579    0.068
 4548.00    0.78216   0.75666    0.067
 4549.00    0.75658   0.75832    0.067
 4550.00    0.74158   0.75858    0.000
 4551.00    0.72853   0.75808    0.000
 4552.00    0.71750   0.75723    0.000
 4553.00    0.73112   0.75538    0.000
 4554.00    0.76739   0.75234    0.000
 4555.00    0.76712   0.75021    0.000
 4556.00    0.73722   0.74993    0.000
 4557.00    0.75437   0.74920    0.000
 4558.00    0.80508   0.74686    0.000
 4559.00    0.82558   0.74424    0.000
 4560.00    0.82717   0.74456    0.000
 4561.00    0.79812   0.75080    0.000
 4562.00    0.75231   0.76217    0.000
 4563.00    0.76525   0.77442    0.000
 4564.00    0.80611   0.78359    0.000
 4565.00    0.83460   0.78797    0.000
 4566.00    0.85801   0.78810    0.000
 4567.00    0.79356   0.78458    0.000
 4568.00    0.69831   0.77730    0.000
 4569.00    0.70617   0.76830    0.000
 4570.00    0.74451   0.76192    0.000
 4571.00    0.77829   0.76200    0.000
 4572.00    0.81097   0.76852    0.000
 4573.00    0.81889   0.77687    0.000
 4574.00    0.82192   0.78183    0.000
 4575.00    0.86124   0.78078    0.000
 4576.00    0.90618   0.77521    0.000
 4577.00    0.83132   0.77093    0.000
 4578.00    0.74276   0.77200    0.000
 4579.00    0.71587   0.77657    0.000
 4580.00    0.69372   0.78087    0.000
 4581.00    0.73582   0.78259    0.000
 4582.00    0.78060   0.78091    0.000
 4583.00    0.77421   0.77568    0.000
 4584.00    0.76590   0.76716    0.000
 4585.00    0.69464   0.75774    0.000
 4586.00    0.63152   0.75136    0.000
 4587.00    0.71095   0.75002    0.000
 4588.00    0.78429   0.75188    0.000
 4589.00    0.79255   0.75398    0.000
 4590.00    0.80502   0.75517    0.000
 4591.00    0.84943   0.75682    0.000
 4592.00    0.88418   0.76133    0.000
 4593.00    0.86342   0.76836    0.000
 4594.00    0.83900   0.77462    0.000
 4595.00    0.79789   0.77623    0.000
 4596.00    0.76697   0.77213    0.000
 4597.00    0.77419   0.76501    0.000
 4598.00    0.77517   0.75851    0.000
 4599.00    0.75659   0.75422    0.000
 4600.00    0.75542   0.75196    0.000
 4601.00    0.80041   0.75154    0.000
 4602.00    0.83536   0.75286    0.000
 4603.00    0.84741   0.75545    0.000
 4604.00    0.85662   0.75770    0.000
 4605.00    0.86020   0.75786    0.000
 4606.00    0.85607   0.75664    0.000
 4607.00    0.83869   0.75588    0.000
 4608.00    0.82782   0.75641    0.000
 4609.00    0.82674   0.75785    0.000
 4610.00    0.82384   0.75944    0.000
 4611.00    0.81850   0.76244    0.000
 4612.00    0.82319   0.76873    0.000
 4613.00    0.83955   0.77821    0.000
 4614.00    0.82744   0.78763    0.000
 4615.00    0.78605   0.79278    0.000
 4616.00    0.78168   0.79210    0.000
 4617.00    0.81088   0.78756    0.000
 4618.00    0.79748   0.78283    0.000
 4619.00    0.75003   0.78099    0.000
 4620.00    0.73159   0.78221    0.000
 4621.00    0.73354   0.78446    0.000
 4622.00    0.74032   0.78589    0.000
 4623.00    0.75008   0.78508    0.000
 4624.00    0.75893   0.78297    0.000
 4625.00    0.76730   0.78202    0.000
 4626.00    0.78928   0.78332    0.000
 4627.00    0.81762   0.78597    0.000
 4628.00    0.81310   0.78818    0.000
 4629.00    0.79531   0.78843    0.000
 4630.00    0.82444   0.78689    0.000
 4631.00    0.86970   0.78464    0.000
 4632.00    0.88021   0.78248    0.000
 4633.00    0.88064   0.78055    0.000
 4634.00    0.85462   0.77898    0.000
 4635.00    0.82225   0.77849    0.000
 4636.00    0.78523   0.77920    0.000
 4637.00    0.74730   0.77959    0.000
 4638.00    0.77329   0.77778    0.000
 4639.00    0.80886   0.77373    0.000
 4640.00    0.80297   0.76906    0.000
 4641.00    0.79251   0.76489    0.000
 4642.00    0.80457   0.76037    0.000
 4643.00    0.81827   0.75505    0.000
 4644.00    0.76754   0.75022    0.000
 4645.00    0.71436   0.74821    0.000
 4646.00    0.70984   0.75029    0.000
 4647.00    0.70598   0.75472    0.000
 4648.00    0.71791   0.75812    0.000
 4649.00    0.72956   0.75721    0.000
 4650.00    0.73667   0.75057    0.000
 4651.00    0.74935   0.73996    0.000
 4652.00    0.81900   0.72961    0.000
 4653.00    0.87592   0.72389    0.000
 4654.00    0.83978   0.72531    0.000
 4655.00    0.80608   0.73281    0.000
 4656.00    0.78599   0.74288    0.000
 4657.00    0.77331   0.75189    0.000
 4658.00    0.79367   0.75692    0.000
 4659.00    0.79586   0.75675    0.000
 4660.00    0.73154   0.75340    0.000
 4661.00    0.69511   0.75104    0.000
 4662.00    0.74425   0.75429    0.000
 4663.00    0.77241   0.76413    0.000
 4664.00    0.74584   0.77665    0.000
 4665.00    0.73504   0.78584    0.000
 4666.00    0.75962   0.78714    0.000
 4667.00    0.76777   0.78070    0.000
 4668.00    0.74403   0.77036    0.000
 4669.00    0.72049   0.75987    0.000
 4670.00    0.69728   0.74961    0.000
 4671.00    0.70741   0.73787    0.000
 4672.00    0.76701   0.72520    0.000
 4673.00    0.80250   0.71614    0.000
 4674.00    0.80656   0.71582    0.000
 4675.00    0.80252   0.72493    0.000
 4676.00    0.78918   0.73832    0.000
 4677.00    0.77817   0.74934    0.000
 4678.00    0.76954   0.75495    0.000
 4679.00    0.77397   0.75653    0.000
 4680.00    0.79006   0.75752    0.000
 4681.00    0.79463   0.75979    0.000
 4682.00    0.79012   0.76175    0.000
 4683.00    0.77905   0.76075    0.000
 4684.00    0.76344   0.75574    0.000
 4685.00    0.75414   0.74856    0.000
 4686.00    0.74867   0.74247    0.000
 4687.00    0.74462   0.73982    0.000
 4688.00    0.74131   0.74058    0.000
 4689.00    0.77290   0.74266    0.000
 4690.00    0.82054   0.74385    0.000
 4691.00    0.80738   0.74356    0.000
 4692.00    0.77012   0.74311    0.000
 4693.00    0.77217   0.74405    0.000
 4694.00    0.78751   0.74616    0.000
 4695.00    0.79650   0.74814    0.000
 4696.00    0.80370   0.74949    0.000
 4697.00    0.77785   0.75090    0.000
 4698.00    0.74427   0.75366    0.000
 4699.00    0.68862   0.75834    0.000
 4700.00    0.62881   0.76359    0.000
 4701.00    0.63178   0.76665    0.000
 4702.00    0.64389   0.76487    0.000
 4703.00    0.68810   0.75776    0.000
 4704.00    0.73571   0.74827    0.000
 4705.00    0.75924   0.74040    0.000
 4706.00    0.78112   0.73591    0.000
 4707.00    0.76437   0.73380    0.000
 4708.00    0.74631   0.73290    0.000
 4709.00    0.72900   0.73359    0.000
 4710.00    0.71231   0.73581    0.000
 4711.00    0.71563   0.73772    0.000
 4712.00    0.72076   0.73731    0.000
 4713.00    0.75380   0.73491    0.000
 4714.00    0.78429   0.73319    0.000
 4715.00    0.78970   0.73449    0.000
 4716.00    0.79373   0.73788    0.000
 4717.00    0.78797   0.73997    0.000
 4718.00    0.78236   0.73856    0.000
 4719.00    0.77764   0.73541    0.000
 4720.00    0.77102   0.73537    0.000
 4721.00    0.75610   0.74136    0.000
 4722.00    0.75108   0.75191    0.000
 4723.00    0.78157   0.76328    0.000
 4724.00    0.79588   0.77244    0.000
 4725.00    0.76145   0.77812    0.000
 4726.00    0.73041   0.78030    0.000
 4727.00    0.70802   0.77981    0.000
 4728.00    0.69559   0.77858    0.000
 4729.00    0.70510   0.77806    0.000
 4730.00    0.71000   0.77729    0.000
 4731.00    0.70608   0.77295    0.000
 4732.00    0.72766   0.76290    0.000
 4733.00    0.79180   0.74928    0.000
 4734.00    0.81647   0.73730    0.000
 4735.00    0.78343   0.73128    0.000
 4736.00    0.74486   0.73186    0.000
 4737.00    0.69916   0.73683    0.000
 4738.00    0.69420   0.74342    0.000
 4739.00    0.73537   0.74945    0.000
 4740.00    0.76107   0.75318    0.000
 4741.00    0.77132   0.75436    0.000
 4742.00    0.76252   0.75452    0.000
 4743.00    0.73693   0.75549    0.000
 4744.00    0.72981   0.75780    0.000
 4745.00    0.73703   0.75981    0.000
 4746.00    0.75080   0.76019    0.000
 4747.00    0.76905   0.76004    0.000
 4748.00    0.77734   0.76097    0.000
 4749.00    0.77968   0.76307    0.000
 4750.00    0.79009   0.76557    0.000
 4751.00    0.80470   0.76807    0.000
 4752.00    0.78368   0.77064    0.000
 4753.00    0.74652   0.77290    0.000
 4754.00    0.73711   0.77407    0.000
 4755.00    0.73850   0.77379    0.000
 4756.00    0.73130   0.77198    0.000
 4757.00    0.72124   0.76849    0.000
 4758.00    0.73973   0.76359    0.000
 4759.00    0.76615   0.75850    0.000
 4760.00    0.76135   0.75451    0.000
 4761.00    0.74940   0.75233    0.059
 4762.00    0.71520   0.75199    0.058
 4763.00    0.67693   0.75311    0.057
 4764.00    0.72231   0.75489    0.058
 4765.00    0.77948   0.75561    0.059
 4766.00    0.76200   0.75335    0.058
 4767.00    0.73695   0.74744    0.058
 4768.00    0.71235   0.73924    0.058
 4769.00    0.68778   0.73130    0.057
 4770.00    0.68628   0.72554    0.058
 4771.00    0.68560   0.72300    0.059
 4772.00    0.75329   0.72454    0.058
 4773.00    0.81975   0.73037    0.058
 4774.00    0.85069   0.73865    0.059
 4775.00    0.87762   0.74596    0.060
 4776.00    0.84652   0.74982    0.059
 4777.00    0.81903   0.75053    0.058
 4778.00    0.82554   0.75112    0.058
 4779.00    0.82668   0.75406    0.059
 4780.00    0.79113   0.75892    0.058
 4781.00    0.76129   0.76338    0.058
 4782.00    0.76172   0.76570    0.057
 4783.00    0.75547   0.76582    0.057
 4784.00    0.72076   0.76421    0.056
 4785.00    0.69982   0.76117    0.056
 4786.00    0.72727   0.75706    0.056
 4787.00    0.75067   0.75220    0.056
 4788.00    0.76206   0.74723    0.057
 4789.00    0.75902   0.74307    0.058
 4790.00    0.71964   0.74028    0.057
 4791.00    0.70329   0.73866    0.057
 4792.00    0.73691   0.73734    0.057
 4793.00    0.77132   0.73642    0.057
 4794.00    0.80723   0.73658    0.058
 4795.00    0.81145   0.73795    0.058
 4796.00    0.76358   0.74115    0.059
 4797.00    0.75611   0.74686    0.059
 4798.00    0.80684   0.75496    0.059
 4799.00    0.81034   0.76413    0.059
 4800.00    0.75399   0.77168    0.058
 4801.00    0.72260   0.77466    0.058
 4802.00    0.71907   0.77180    0.058
 4803.00    0.70923   0.76453    0.059
 4804.00    0.69317   0.75637    0.059
 4805.00    0.72006   0.75126    0.059
 4806.00    0.78427   0.75147    0.058
 4807.00    0.78917   0.75603    0.058
 4808.00    0.74867   0.76110    0.057
 4809.00    0.74293   0.76276    0.058
 4810.00    0.76058   0.75991    0.060
 4811.00    0.76313   0.75424    0.059
 4812.00    0.75679   0.74871    0.058
 4813.00    0.73840   0.74525    0.057
 4814.00    0.71381   0.74447    0.058
 4815.00    0.75560   0.74612    0.059
 4816.00    0.82695   0.74888    0.060
 4817.00    0.80715   0.75124    0.060
 4818.00    0.75248   0.75273    0.060
 4819.00    0.76620   0.75390    0.059
 4820.00    0.80215   0.75570    0.059
 4821.00    0.81775   0.75864    0.059
 4822.00    0.82780   0.76245    0.059
 4823.00    0.81195   0.76634    0.059
 4824.00    0.79032   0.76904    0.059
 4825.00    0.78626   0.76958    0.059
 4826.00    0.78532   0.76702    0.059
 4827.00    0.72178   0.76087    0.058
 4828.00    0.64970   0.75245    0.057
 4829.00    0.70689   0.74470    0.057
 4830.00    0.77664   0.74126    0.058
 4831.00    0.73472   0.74281    0.058
 4832.00    0.68602   0.74609    0.058
 4833.00    0.69725   0.74760    0.058
 4834.00    0.71010   0.74642    0.058
 4835.00    0.72973   0.74363    0.058
 4836.00    0.74740   0.74060    0.058
 4837.00    0.71384   0.73814    0.057
 4838.00    0.68581   0.73731    0.057
 4839.00    0.73336   0.73928    0.058
 4840.00    0.77940   0.74298    0.058
 4841.00    0.81182   0.74604    0.058
 4842.00    0.83223   0.74656    0.057
 4843.00    0.77298   0.74413    0.056
 4844.00    0.72737   0.73932    0.055
 4845.00    0.75216   0.73370    0.056
 4846.00    0.76995   0.72926    0.056
 4847.00    0.75855   0.72704    0.056
 4848.00    0.74725   0.72688    0.000
 4849.00    0.73626   0.72825    0.000
 4850.00    0.72598   0.73105    0.000
 4851.00    0.71778   0.73382    0.000
 4852.00    0.70779   0.73379    0.000
 4853.00    0.69340   0.72998    0.000
 4854.00    0.68079   0.72421    0.000
 4855.00    0.67200   0.71958    0.000
 4856.00    0.66523   0.71714    0.000
 4857.00    0.66222   0.71440    0.000
 4858.00    0.66437   0.70821    0.000
 4859.00    0.67489   0.69704    0.000
 4860.00    0.66520   0.68166    0.000
 4861.00    0.62682   0.66489    0.000
 4862.00    0.62679   0.64891    0.000
 4863.00    0.67465   0.63154    0.000
 4864.00    0.68791   0.60754    0.000
 4865.00    0.66304   0.57603    0.000
 4866.00    0.65383   0.54453    0.000
 4867.00    0.65985   0.52583    0.000
 4868.00    0.66322   0.52928    0.000
 4869.00    0.66432   0.55267    0.000
 4870.00    0.65457   0.58479    0.000
 4871.00    0.63664   0.61614    0.000
 4872.00    0.63959   0.64139    0.000
 4873.00    0.65638   0.65920    0.000
 4874.00    0.67264   0.66947    0.000
 4875.00    0.68858   0.67274    0.054
 4876.00    0.71177   0.67075    0.054
 4877.00    0.73863   0.66790    0.054
 4878.00    0.74841   0.66958    0.054
 4879.00    0.75072   0.67731    0.054
 4880.00    0.75118   0.68819    0.054
 4881.00    0.75094   0.69882    0.054
 4882.00    0.76574   0.70819    0.054
 4883.00    0.78533   0.71684    0.054
 4884.00    0.76345   0.72443    0.054
 4885.00    0.73051   0.72973    0.054
 4886.00    0.68757   0.73089    0.054
 4887.00    0.64244   0.72825    0.053
 4888.00    0.63336   0.72438    0.054
 4889.00    0.63052   0.72057    0.054
 4890.00    0.64683   0.71635    0.054
 4891.00    0.66566   0.71165    0.053
 4892.00    0.71149   0.70772    0.053
 4893.00    0.75982   0.70550    0.054
 4894.00    0.78370   0.70364    0.054
 4895.00    0.80620   0.70053    0.054
 4896.00    0.77279   0.69758    0.054
 4897.00    0.73834   0.69931    0.054
 4898.00    0.72954   0.71000    0.055
 4899.00    0.72093   0.72805    0.055
 4900.00    0.71667   0.74754    0.055
 4901.00    0.71436   0.76280    0.054
 4902.00    0.73737   0.77075    0.054
 4903.00    0.75899   0.77156    0.054
 4904.00    0.76854   0.76706    0.054
 4905.00    0.77641   0.75973    0.054
 4906.00    0.77343   0.75252    0.054
 4907.00    0.77110   0.74742    0.054
 4908.00    0.77204   0.74462    0.054
 4909.00    0.76402   0.74427    0.054
 4910.00    0.71954   0.74686    0.054
 4911.00    0.68264   0.75144    0.055
 4912.00    0.67131   0.75475    0.054
 4913.00    0.67893   0.75315    0.054
 4914.00    0.74053   0.74607    0.055
 4915.00    0.77892   0.73668    0.055
 4916.00    0.76085   0.72965    0.054
 4917.00    0.74612   0.72830    0.054
 4918.00    0.73842   0.73261    0.054
 4919.00    0.72624   0.73999    0.054
 4920.00    0.70590   0.74698    0.053
 4921.00    0.69585   0.74991    0.053
 4922.00    0.70219   0.74506    0.054
 4923.00    0.70664   0.73046    0.054
 4924.00    0.70844   0.70803    0.054
 4925.00    0.70560   0.68408    0.054
 4926.00    0.69704   0.66677    0.054
 4927.00    0.69537   0.66122    0.054
 4928.00    0.70118   0.66760    0.054
 4929.00    0.71599   0.68114    0.054
 4930.00    0.73940   0.69713    0.054
 4931.00    0.76239   0.71305    0.054
 4932.00    0.78502   0.72864    0.054
 4933.00    0.77848   0.74286    0.054
 4934.00    0.75024   0.75438    0.053
 4935.00    0.72114   0.76189    0.053
 4936.00    0.69149   0.76406    0.053
 4937.00    0.68620   0.76036    0.054
 4938.00    0.69485   0.75184    0.055
 4939.00    0.68868   0.74171    0.054
 4940.00    0.67512   0.73392    0.000
 4941.00    0.68443   0.72950    0.000
 4942.00    0.70359   0.72538    0.000
 4943.00    0.71320   0.71922    0.000
 4944.00    0.71928   0.71310    0.000
 4945.00    0.76119   0.71206    0.000
 4946.00    0.81431   0.71880    0.000
 4947.00    0.78004   0.73089    0.000
 4948.00    0.72296   0.74310    0.000
 4949.00    0.76168   0.75184    0.000
 4950.00    0.82080   0.75620    0.000
 4951.00    0.80891   0.75747    0.000
 4952.00    0.78505   0.75808    0.000
 4953.00    0.74540   0.76002    0.000
 4954.00    0.70374   0.76340    0.000
 4955.00    0.71835   0.76695    0.000
 4956.00    0.73794   0.76912    0.000
 4957.00    0.74547   0.76883    0.000
 4958.00    0.75235   0.76548    0.000
 4959.00    0.69254   0.75886    0.000
 4960.00    0.63249   0.74857    0.000
 4961.00    0.65385   0.73410    0.000
 4962.00    0.67522   0.71730    0.000
 4963.00    0.69685   0.70373    0.000
 4964.00    0.71623   0.70033    0.000
 4965.00    0.70793   0.70886    0.000
 4966.00    0.70300   0.72350    0.000
 4967.00    0.72627   0.73625    0.000
 4968.00    0.74163   0.74254    0.000
 4969.00    0.70768   0.74217    0.000
 4970.00    0.68382   0.73697    0.000
 4971.00    0.70938   0.72945    0.000
 4972.00    0.73245   0.72266    0.000
 4973.00    0.74556   0.71899    0.000
 4974.00    0.75151   0.71896    0.000
 4975.00    0.73380   0.72194    0.000
 4976.00    0.71970   0.72695    0.000
 4977.00    0.71567   0.73318    0.000
 4978.00    0.70633   0.73973    0.000
 4979.00    0.68426   0.74524    0.000
 4980.00    0.67179   0.74837    0.000
 4981.00    0.67913   0.74811    0.000
 4982.00    0.68014   0.74417    0.000
 4983.00    0.66975   0.73728    0.000
 4984.00    0.66105   0.72860    0.000
 4985.00    0.65504   0.71899    0.000
 4986.00    0.64829   0.70843    0.000
 4987.00    0.64055   0.69684    0.000
 4988.00    0.64743   0.68601    0.000
 4989.00    0.67204   0.67963    0.000
 4990.00    0.69908   0.68058    0.000
 4991.00    0.72871   0.68856    0.000
 4992.00    0.71624   0.70031    0.000
 4993.00    0.66403   0.71165    0.000
 4994.00    0.62859   0.71912    0.000
 4995.00    0.60710   0.72167    0.000
 4996.00    0.62005   0.72101    0.000
 4997.00    0.65824   0.71982    0.000
 4998.00    0.68592   0.71981    0.000
 4999.00    0.70684   0.72105    0.000
 5000.00    0.72245   0.72284    0.000
 5001.00    0.73507   0.72463    0.000
 5002.00    0.71224   0.72536    0.000
 5003.00    0.67205   0.72328    0.000
 5004.00    0.66391   0.71750    0.000
 5005.00    0.66935   0.70901    0.000
 5006.00    0.67373   0.70046    0.000
 5007.00    0.67773   0.69454    0.000
 5008.00    0.68392   0.69163    0.000
 5009.00    0.69078   0.68971    0.000
 5010.00    0.68332   0.68664    0.000
 5011.00    0.67221   0.68274    0.000
 5012.00    0.65181   0.68117    0.000
 5013.00    0.62946   0.68476    0.000
 5014.00    0.61883   0.69244    0.000
 5015.00    0.61012   0.69933    0.000
 5016.00    0.61794   0.70044    0.000
 5017.00    0.62779   0.69423    0.000
 5018.00    0.64592   0.68281    0.000
 5019.00    0.66475   0.67043    0.000
 5020.00    0.68438   0.66152    0.000
 5021.00    0.70404   0.65858    0.000
 5022.00    0.68572   0.66138    0.000
 5023.00    0.66713   0.66774    0.000
 5024.00    0.66805   0.67501    0.000
 5025.00    0.66815   0.68153    0.000
 5026.00    0.65172   0.68627    0.000
 5027.00    0.63843   0.68908    0.000
 5028.00    0.66175   0.69105    0.000
 5029.00    0.68158   0.69378    0.051
 5030.00    0.67328   0.69759    0.052
 5031.00    0.66892   0.70073    0.052
 5032.00    0.68847   0.70170    0.052
 5033.00    0.69944   0.70157    0.052
 5034.00    0.66933   0.70278    0.052
 5035.00    0.64140   0.70720    0.052
 5036.00    0.62192   0.71441    0.052
 5037.00    0.61226   0.72222    0.052
 5038.00    0.63449   0.72829    0.052
 5039.00    0.65204   0.73005    0.052
 5040.00    0.65674   0.72576    0.052
 5041.00    0.66089   0.71645    0.052
 5042.00    0.66377   0.70531    0.052
 5043.00    0.66657   0.69484    0.051
 5044.00    0.66920   0.68463    0.051
 5045.00    0.67466   0.67303    0.051
 5046.00    0.68513   0.66214    0.052
 5047.00    0.69175   0.65778    0.052
 5048.00    0.69241   0.66440    0.051
 5049.00    0.69838   0.68105    0.052
 5050.00    0.71155   0.70109    0.052
 5051.00    0.71082   0.71669    0.052
 5052.00    0.69344   0.72321    0.052
 5053.00    0.67241   0.71988    0.051
 5054.00    0.64750   0.71012    0.051
 5055.00    0.65465   0.69958    0.051
 5056.00    0.69166   0.69299    0.052
 5057.00    0.69185   0.69230    0.052
 5058.00    0.66182   0.69673    0.051
 5059.00    0.65952   0.70442    0.051
 5060.00    0.67724   0.71296    0.051
 5061.00    0.67724   0.72021    0.051
 5062.00    0.66600   0.72537    0.051
 5063.00    0.65369   0.72899    0.050
 5064.00    0.64079   0.73198    0.050
 5065.00    0.65444   0.73490    0.050
 5066.00    0.68089   0.73720    0.051
 5067.00    0.69097   0.73755    0.050
 5068.00    0.69424   0.73389    0.050
 5069.00    0.65172   0.72507    0.050
 5070.00    0.59290   0.71323    0.050
 5071.00    0.60569   0.70259    0.050
 5072.00    0.64002   0.69659    0.050
 5073.00    0.67061   0.69566    0.051
 5074.00    0.70025   0.69756    0.051
 5075.00    0.67643   0.70035    0.051
 5076.00    0.64178   0.70258    0.051
 5077.00    0.60063   0.70343    0.051
 5078.00    0.55846   0.70312    0.051
 5079.00    0.59542   0.70277    0.050
 5080.00    0.64175   0.70325    0.049
 5081.00    0.64435   0.70367    0.049
 5082.00    0.64344   0.70237    0.049
 5083.00    0.65717   0.69783    0.049
 5084.00    0.67156   0.68939    0.048
 5085.00    0.66374   0.67875    0.048
 5086.00    0.65623   0.66979    0.048
 5087.00    0.67740   0.66653    0.048
 5088.00    0.69809   0.66948    0.048
 5089.00    0.70991   0.67626    0.049
 5090.00    0.71882   0.68433    0.049
 5091.00    0.69536   0.69219    0.049
 5092.00    0.67352   0.69878    0.049
 5093.00    0.66426   0.70353    0.049
 5094.00    0.65444   0.70683    0.049
 5095.00    0.64128   0.70953    0.050
 5096.00    0.63353   0.71241    0.050
 5097.00    0.65102   0.71571    0.050
 5098.00    0.66867   0.71913    0.050
 5099.00    0.68690   0.72139    0.050
 5100.00    0.69901   0.72057    0.050
 5101.00    0.69164   0.71532    0.049
 5102.00    0.67919   0.70604    0.049
 5103.00    0.65308   0.69488    0.049
 5104.00    0.62897   0.68511    0.050
 5105.00    0.60952   0.68014    0.050
 5106.00    0.60443   0.68143    0.050
 5107.00    0.62808   0.68759    0.050
 5108.00    0.64125   0.69429    0.050
 5109.00    0.63615   0.69775    0.050
 5110.00    0.61996   0.69709    0.050
 5111.00    0.58682   0.69345    0.050
 5112.00    0.58806   0.68848    0.050
 5113.00    0.63537   0.68366    0.051
 5114.00    0.66266   0.67996    0.051
 5115.00    0.66633   0.67854    0.051
 5116.00    0.66895   0.68017    0.051
 5117.00    0.67049   0.68423    0.051
 5118.00    0.66425   0.69029    0.051
 5119.00    0.65087   0.69711    0.051
 5120.00    0.65346   0.70330    0.051
 5121.00    0.66897   0.70906    0.050
 5122.00    0.67815   0.71426    0.050
 5123.00    0.68282   0.71806    0.050
 5124.00    0.65673   0.71939    0.050
 5125.00    0.61142   0.71683    0.050
 5126.00    0.60483   0.71004    0.050
 5127.00    0.61938   0.70000    0.049
 5128.00    0.61919   0.68821    0.050
 5129.00    0.61200   0.67717    0.050
 5130.00    0.60002   0.66905    0.050
 5131.00    0.58608   0.66498    0.049
 5132.00    0.58713   0.66440    0.049
 5133.00    0.59343   0.66524    0.049
 5134.00    0.59388   0.66634    0.049
 5135.00    0.59260   0.66830    0.049
 5136.00    0.58232   0.67203    0.049
 5137.00    0.56983   0.67749    0.049
 5138.00    0.58224   0.68386    0.049
 5139.00    0.59956   0.68989    0.050
 5140.00    0.61893   0.69462    0.049
 5141.00    0.63862   0.69673    0.049
 5142.00    0.64903   0.69534    0.048
 5143.00    0.65838   0.69017    0.048
 5144.00    0.63611   0.68310    0.048
 5145.00    0.61144   0.67774    0.048
 5146.00    0.58712   0.67490    0.049
 5147.00    0.56282   0.67366    0.049
 5148.00    0.55583   0.67293    0.048
 5149.00    0.55017   0.67185    0.048
 5150.00    0.59458   0.67112    0.049
 5151.00    0.63565   0.67096    0.049
 5152.00    0.61903   0.67035    0.049
 5153.00    0.60522   0.66968    0.049
 5154.00    0.62142   0.66997    0.049
 5155.00    0.63670   0.67045    0.049
 5156.00    0.64500   0.67001    0.049
 5157.00    0.65321   0.66786    0.049
 5158.00    0.66090   0.66509    0.050
 5159.00    0.66802   0.66415    0.050
 5160.00    0.67254   0.66702    0.049
 5161.00    0.67156   0.67403    0.049
 5162.00    0.65006   0.68401    0.050
 5163.00    0.62121   0.69436    0.050
 5164.00    0.56945   0.70234    0.049
 5165.00    0.54031   0.70682    0.049
 5166.00    0.57111   0.70732    0.049
 5167.00    0.57282   0.70409    0.050
 5168.00    0.50836   0.69740    0.049
 5169.00    0.46818   0.68628    0.048
 5170.00    0.47580   0.66954    0.049
 5171.00    0.48368   0.64701    0.049
 5172.00    0.49201   0.62120    0.049
 5173.00    0.50168   0.59871    0.049
 5174.00    0.51339   0.58586    0.049
 5175.00    0.53169   0.58340    0.049
 5176.00    0.55868   0.58525    0.050
 5177.00    0.57204   0.58481    0.050
 5178.00    0.56952   0.58255    0.050
 5179.00    0.57884   0.58518    0.049
 5180.00    0.60030   0.59816    0.049
 5181.00    0.59711   0.61977    0.048
 5182.00    0.57159   0.64251    0.048
 5183.00    0.55322   0.65937    0.048
 5184.00    0.54055   0.66756    0.049
 5185.00    0.54101   0.66697    0.049
 5186.00    0.55070   0.65762    0.048
 5187.00    0.55495   0.63996    0.048
 5188.00    0.55587   0.61732    0.048
 5189.00    0.54602   0.59812    0.048
 5190.00    0.53038   0.59169    0.000
 5191.00    0.56222   0.60176    0.000
 5192.00    0.61622   0.62402    0.000
 5193.00    0.61168   0.64835    0.000
 5194.00    0.58359   0.66677    0.000
 5195.00    0.58864   0.67617    0.000
 5196.00    0.60506   0.67623    0.000
 5197.00    0.63419   0.66960    0.000
 5198.00    0.66701   0.66085    0.000
 5199.00    0.63151   0.65462    0.000
 5200.00    0.57970   0.65382    0.000
 5201.00    0.60561   0.65843    0.000
 5202.00    0.64648   0.66595    0.000
 5203.00    0.64577   0.67446    0.000
 5204.00    0.63884   0.68291    0.000
 5205.00    0.62511   0.68959    0.000
 5206.00    0.61063   0.69305    0.000
 5207.00    0.57908   0.69226    0.000
 5208.00    0.54630   0.68677    0.000
 5209.00    0.54358   0.67635    0.000
 5210.00    0.54197   0.66216    0.000
 5211.00    0.60445   0.64710    0.052
 5212.00    0.66567   0.63436    0.052
 5213.00    0.67052   0.62615    0.049
 5214.00    0.67333   0.62413    0.048
 5215.00    0.64308   0.62859    0.048
 5216.00    0.61683   0.63936    0.048
 5217.00    0.63126   0.65522    0.048
 5218.00    0.64381   0.67214    0.049
 5219.00    0.64263   0.68540    0.048
 5220.00    0.64358   0.69178    0.047
 5221.00    0.65636   0.69188    0.048
 5222.00    0.66659   0.68965    0.049
 5223.00    0.66553   0.68962    0.049
 5224.00    0.66141   0.69390    0.049
 5225.00    0.64613   0.70104    0.049
 5226.00    0.63535   0.70789    0.049
 5227.00    0.63833   0.71101    0.049
 5228.00    0.63712   0.70812    0.049
 5229.00    0.62498   0.69831    0.049
 5230.00    0.61853   0.68267    0.049
 5231.00    0.62476   0.66478    0.049
 5232.00    0.64443   0.65056    0.050
 5233.00    0.69014   0.64607    0.050
 5234.00    0.71487   0.65290    0.050
 5235.00    0.70414   0.66733    0.050
 5236.00    0.69384   0.68257    0.050
 5237.00    0.68420   0.69166    0.050
 5238.00    0.67228   0.69286    0.049
 5239.00    0.65739   0.68972    0.048
 5240.00    0.66481   0.68724    0.048
 5241.00    0.69780   0.68964    0.049
 5242.00    0.72056   0.69719    0.049
 5243.00    0.73299   0.70662    0.050
 5244.00    0.72593   0.71444    0.050
 5245.00    0.70148   0.71885    0.050
 5246.00    0.68967   0.72043    0.050
 5247.00    0.68781   0.72066    0.049
 5248.00    0.68306   0.72076    0.049
 5249.00    0.67631   0.72104    0.049
 5250.00    0.66383   0.72021    0.049
 5251.00    0.64786   0.71613    0.049
 5252.00    0.66837   0.70800    0.049
 5253.00    0.70818   0.69772    0.050
 5254.00    0.68949   0.68819    0.049
 5255.00    0.64393   0.68155    0.048
 5256.00    0.65434   0.67876    0.048
 5257.00    0.68689   0.67906    0.048
 5258.00    0.67960   0.68142    0.048
 5259.00    0.65891   0.68491    0.049
 5260.00    0.66985   0.68845    0.049
 5261.00    0.68974   0.69301    0.050
 5262.00    0.67316   0.70005    0.050
 5263.00    0.64807   0.70923    0.049
 5264.00    0.61132   0.71769    0.049
 5265.00    0.57239   0.72076    0.049
 5266.00    0.56595   0.71543    0.050
 5267.00    0.56420   0.70184    0.050
 5268.00    0.59250   0.68267    0.050
 5269.00    0.62396   0.66200    0.050
 5270.00    0.59946   0.64394    0.050
 5271.00    0.57115   0.63148    0.050
 5272.00    0.55930   0.62564    0.050
 5273.00    0.54800   0.62380    0.050
 5274.00    0.56698   0.62175    0.050
 5275.00    0.58660   0.61907    0.050
 5276.00    0.62557   0.61935    0.049
 5277.00    0.66278   0.62622    0.048
 5278.00    0.67313   0.63979    0.049
 5279.00    0.68282   0.65556    0.049
 5280.00    0.68604   0.66811    0.049
 5281.00    0.68793   0.67716    0.049
 5282.00    0.68047   0.68631    0.049
 5283.00    0.67252   0.69691    0.049
 5284.00    0.66193   0.70707    0.048
 5285.00    0.65753   0.71298    0.048
 5286.00    0.68003   0.71181    0.049
 5287.00    0.69521   0.70482    0.049
 5288.00    0.68421   0.69621    0.049
 5289.00    0.68268   0.69086    0.048
 5290.00    0.70960   0.69249    0.049
 5291.00    0.73422   0.70135    0.049
 5292.00    0.75294   0.71410    0.049
 5293.00    0.75646   0.72617    0.049
 5294.00    0.72654   0.73419    0.049
 5295.00    0.70183   0.73791    0.049
 5296.00    0.68705   0.73902    0.049
 5297.00    0.67331   0.73870    0.049
 5298.00    0.66129   0.73678    0.049
 5299.00    0.66664   0.73269    0.050
 5300.00    0.69734   0.72578    0.050
 5301.00    0.71135   0.71543    0.049
 5302.00    0.70397   0.70213    0.049
 5303.00    0.70329   0.68843    0.049
 5304.00    0.71020   0.67878    0.049
 5305.00    0.70511   0.67624    0.048
 5306.00    0.68804   0.68033    0.048
 5307.00    0.69572   0.68850    0.048
 5308.00    0.72519   0.69821    0.049
 5309.00    0.72545   0.70846    0.048
 5310.00    0.70308   0.71889    0.048
 5311.00    0.71617   0.72771    0.048
 5312.00    0.75341   0.73299    0.049
 5313.00    0.74490   0.73491    0.048
 5314.00    0.70905   0.73555    0.048
 5315.00    0.69560   0.73659    0.047
 5316.00    0.69382   0.73812    0.047
 5317.00    0.71221   0.73892    0.047
 5318.00    0.73970   0.73779    0.047
 5319.00    0.74551   0.73483    0.047
 5320.00    0.74289   0.73090    0.046
 5321.00    0.73147   0.72652    0.046
 5322.00    0.71713   0.72244    0.046
 5323.00    0.69160   0.71953    0.046
 5324.00    0.66297   0.71799    0.046
 5325.00    0.66259   0.71756    0.046
 5326.00    0.66866   0.71718    0.046
 5327.00    0.63307   0.71525    0.046
 5328.00    0.58988   0.71099    0.046
 5329.00    0.61808   0.70441    0.047
 5330.00    0.65628   0.69613    0.047
 5331.00    0.68502   0.68634    0.047
 5332.00    0.71282   0.67413    0.046
 5333.00    0.69364   0.65999    0.046
 5334.00    0.67144   0.64792    0.047
 5335.00    0.69667   0.64367    0.046
 5336.00    0.72325   0.65030    0.046
 5337.00    0.72060   0.66581    0.047
 5338.00    0.71792   0.68347    0.047
 5339.00    0.71401   0.69786    0.047
 5340.00    0.71162   0.70799    0.047
 5341.00    0.73108   0.71452    0.046
 5342.00    0.74678   0.71770    0.046
 5343.00    0.72727   0.71688    0.046
 5344.00    0.71020   0.71183    0.046
 5345.00    0.70976   0.70364    0.046
 5346.00    0.70745   0.69530    0.046
 5347.00    0.69523   0.69056    0.046
 5348.00    0.68508   0.69121    0.046
 5349.00    0.68375   0.69621    0.047
 5350.00    0.67928   0.70208    0.047
 5351.00    0.66381   0.70496    0.047
 5352.00    0.66420   0.70452    0.047
 5353.00    0.71130   0.70223    0.047
 5354.00    0.74089   0.69971    0.047
 5355.00    0.72645   0.69921    0.047
 5356.00    0.73204   0.70207    0.047
 5357.00    0.78096   0.70846    0.048
 5358.00    0.81137   0.71723    0.048
 5359.00    0.80700   0.72638    0.048
 5360.00    0.79522   0.73463    0.048
 5361.00    0.77129   0.74141    0.048
 5362.00    0.74281   0.74666    0.047
 5363.00    0.70780   0.75008    0.047
 5364.00    0.67395   0.75100    0.047
 5365.00    0.64155   0.74930    0.047
 5366.00    0.63400   0.74495    0.046
 5367.00    0.65416   0.73823    0.046
 5368.00    0.66646   0.73042   -2.000
 5369.00    0.67102   0.72304   -2.000
 5370.00    0.66688   0.71687   -2.000
 5371.00    0.65521   0.71227   -2.000
 5372.00    0.63022   0.70870   -2.000
 5373.00    0.59507   0.70469   -2.000
 5374.00    0.59143   0.69889   -2.000
 5375.00    0.60894   0.69028   -2.000
 5376.00    0.64670   0.68029   -2.000
 5377.00    0.69636   0.67352   -2.000
 5378.00    0.71952   0.67481   -2.000
 5379.00    0.72909   0.68508   -2.000
 5380.00    0.72612   0.70057   -2.000
 5381.00    0.71759   0.71547   -2.000
 5382.00    0.71965   0.72526   -2.000
 5383.00    0.72575   0.72959    0.046
 5384.00    0.69629   0.73047    0.046
 5385.00    0.65531   0.72930    0.046
 5386.00    0.66904   0.72683    0.046
 5387.00    0.69763   0.72349    0.046
 5388.00    0.70246   0.71990    0.045
 5389.00    0.70200   0.71726    0.044
 5390.00    0.68195   0.71678    0.045
 5391.00    0.65842   0.71803    0.045
 5392.00    0.63814   0.71948    0.045
 5393.00    0.61831   0.71954    0.045
 5394.00    0.63493   0.71695    0.045
 5395.00    0.65507   0.71179    0.046
 5396.00    0.65065   0.70546    0.045
 5397.00    0.64476   0.69952    0.045
 5398.00    0.63839   0.69486    0.045
 5399.00    0.63221   0.69124    0.045
 5400.00    0.65827   0.68758    0.046
 5401.00    0.68307   0.68301    0.046
 5402.00    0.67558   0.67745    0.046
 5403.00    0.66843   0.67332    0.045
 5404.00    0.66588   0.67391    0.046
 5405.00    0.66147   0.67913    0.046
 5406.00    0.64033   0.68635    0.046
 5407.00    0.62414   0.69212    0.046
 5408.00    0.64060   0.69303    0.046
 5409.00    0.65628   0.68744    0.046
 5410.00    0.66793   0.67680    0.046
 5411.00    0.67507   0.66494    0.047
 5412.00    0.66350   0.65659    0.046
 5413.00    0.65288   0.65441    0.046
 5414.00    0.64549   0.65688    0.046
 5415.00    0.64822   0.66088    0.046
 5416.00    0.68020   0.66548    0.046
 5417.00    0.70270   0.67189    0.046
 5418.00    0.70182   0.68066    0.045
 5419.00    0.69877   0.69072    0.045
 5420.00    0.69109   0.70006    0.046
 5421.00    0.68722   0.70761    0.046
 5422.00    0.69038   0.71365    0.046
 5423.00    0.69074   0.71804    0.045
 5424.00    0.68655   0.72009    0.045
 5425.00    0.68768   0.71952    0.045
 5426.00    0.69638   0.71691    0.045
 5427.00    0.69920   0.71387    0.045
 5428.00    0.69468   0.71146    0.045
 5429.00    0.68117   0.70921    0.045
 5430.00    0.65775   0.70759    0.045
 5431.00    0.64466   0.70797    0.045
 5432.00    0.64159   0.70973    0.045
 5433.00    0.63845   0.71047    0.044
 5434.00    0.63524   0.70705    0.044
 5435.00    0.64577   0.69864    0.044
 5436.00    0.66665   0.68959    0.044
 5437.00    0.69435   0.68349    0.044
 5438.00    0.72656   0.67980    0.044
 5439.00    0.73074   0.67742    0.044
 5440.00    0.71869   0.67555    0.044
 5441.00    0.71502   0.67523    0.044
 5442.00    0.71559   0.67910    0.043
 5443.00    0.71707   0.68815    0.044
 5444.00    0.71894   0.70101    0.044
 5445.00    0.70867   0.71455    0.044
 5446.00    0.69385   0.72579    0.044
 5447.00    0.68689   0.73289    0.045
 5448.00    0.68243   0.73510    0.045
 5449.00    0.68425   0.73203    0.045
 5450.00    0.68773   0.72323    0.045
 5451.00    0.69215   0.70963    0.045
 5452.00    0.69678   0.69443    0.045
 5453.00    0.66941   0.68334    0.045
 5454.00    0.63651   0.68091    0.045
 5455.00    0.66705   0.68618    0.045
 5456.00    0.70590   0.69482    0.045
 5457.00    0.66688   0.70176    0.045
 5458.00    0.62067   0.70326    0.045
 5459.00    0.63801   0.69875    0.045
 5460.00    0.65891   0.69016    0.045
 5461.00    0.67767   0.68126    0.045
 5462.00    0.69631   0.67732    0.045
 5463.00    0.70858   0.68078    0.045
 5464.00    0.71980   0.68915    0.045
 5465.00    0.70640   0.69777    0.045
 5466.00    0.69350   0.70234    0.045
 5467.00    0.68703   0.70153    0.045
 5468.00    0.68227   0.69704    0.045
 5469.00    0.69242   0.69222    0.045
 5470.00    0.69859   0.69061    0.044
 5471.00    0.67923   0.69258    0.044
 5472.00    0.66011   0.69614    0.044
 5473.00    0.64222   0.70000    0.044
 5474.00    0.63436   0.70269    0.044
 5475.00    0.66723   0.70290    0.044
 5476.00    0.68860   0.70085    0.045
 5477.00    0.67129   0.69770    0.044
 5478.00    0.65560   0.69368   -2.000
 5479.00    0.64456   0.68842   -2.000
 5480.00    0.65995   0.68257   -2.000
 5481.00    0.73951   0.67640   -2.000
 5482.00    0.80324   0.66996   -2.000
 5483.00    0.83381   0.66627   -2.000
 5484.00    0.81114   0.66774   -2.000
 5485.00    0.69153   0.67227   -2.000
 5486.00    0.54689   0.67654   -2.000
 5487.00    0.36241   0.67902   -2.000
 5488.00    0.26820   0.68084   -2.000
 5489.00    0.30007   0.68400   -2.000
 5490.00    0.38693   0.68932   -2.000
 5491.00    0.54138   0.69543   -2.000
 5492.00    0.72415   0.69908   -2.000
 5493.00    0.93759   0.69882   -2.000
 5494.00    1.02955   0.69667   -2.000
 5495.00    1.00540   0.69507   -2.000
 5496.00    0.89281   0.69487   -2.000
 5497.00    0.70567   0.69643   -2.000
 5498.00    0.64923   0.69861   -2.000
 5499.00    0.68979   0.69955   -2.000
 5500.00    0.68126   0.69945   -2.000
 5501.00    0.64072   0.69900   -2.000
 5502.00    0.63222   0.69790    0.044
 5503.00    0.64201   0.69660    0.044
 5504.00    0.63597   0.69657    0.044
 5505.00    0.62207   0.69758    0.044
 5506.00    0.63992   0.69766    0.044
 5507.00    0.67142   0.69596    0.044
 5508.00    0.67224   0.69318    0.045
 5509.00    0.66175   0.69014    0.045
 5510.00    0.66818   0.68753    0.045
 5511.00    0.67990   0.68545    0.045
 5512.00    0.67589   0.68354    0.045
 5513.00    0.66778   0.68286    0.044
 5514.00    0.67404   0.68421    0.044
 5515.00    0.68335   0.68597    0.044
 5516.00    0.68179   0.68642    0.044
 5517.00    0.67841   0.68430    0.045
 5518.00    0.67685   0.67948    0.044
 5519.00    0.67553   0.67464    0.044
 5520.00    0.69785   0.67256    0.044
 5521.00    0.72225   0.67437    0.044
 5522.00    0.71268   0.68001    0.044
 5523.00    0.70135   0.68812    0.043
 5524.00    0.69827   0.69705    0.043
 5525.00    0.69545   0.70484    0.043
 5526.00    0.70087   0.70994    0.043
 5527.00    0.70612   0.71225    0.043
 5528.00    0.70783   0.71232    0.043
 5529.00    0.70770   0.71075    0.043
 5530.00    0.68514   0.70776    0.042
 5531.00    0.66561   0.70288    0.042
 5532.00    0.67135   0.69609    0.043
 5533.00    0.67767   0.68853    0.043
 5534.00    0.68762   0.68245    0.042
 5535.00    0.69706   0.68067    0.042
 5536.00    0.70399   0.68379    0.042
 5537.00    0.70869   0.68929    0.043
 5538.00    0.70456   0.69411    0.043
 5539.00    0.70688   0.69644    0.043
 5540.00    0.73051   0.69614    0.044
 5541.00    0.74433   0.69468    0.044
 5542.00    0.73074   0.69414    0.044
 5543.00    0.72180   0.69542    0.045
 5544.00    0.72396   0.69814    0.046
 5545.00    0.72029   0.70203    0.046
 5546.00    0.70460   0.70617    0.046
 5547.00    0.69398   0.70906    0.045
 5548.00    0.69246   0.70966    0.044
 5549.00    0.69494   0.70788    0.044
 5550.00    0.70368   0.70508    0.044
 5551.00    0.71703   0.70301    0.044
 5552.00    0.73674   0.70269    0.044
 5553.00    0.75017   0.70476    0.044
 5554.00    0.75598   0.70889    0.044
 5555.00    0.73134   0.71348    0.044
 5556.00    0.67414   0.71693    0.044
 5557.00    0.64829   0.71823    0.043
 5558.00    0.65198   0.71692    0.044
 5559.00    0.67066   0.71353    0.044
 5560.00    0.70178   0.70943    0.043
 5561.00    0.70458   0.70611    0.044
 5562.00    0.68665   0.70433    0.044
 5563.00    0.67846   0.70374    0.044
 5564.00    0.67652   0.70373    0.043
 5565.00    0.67206   0.70384    0.043
 5566.00    0.66618   0.70337    0.043
 5567.00    0.67577   0.70189    0.043
 5568.00    0.69293   0.69938    0.042
 5569.00    0.70012   0.69614    0.042
 5570.00    0.70310   0.69298    0.043
 5571.00    0.69462   0.69032    0.042
 5572.00    0.68200   0.68805    0.042
 5573.00    0.68440   0.68653    0.042
 5574.00    0.69139   0.68597    0.042
 5575.00    0.70139   0.68598    0.042
 5576.00    0.71215   0.68644    0.042
 5577.00    0.71698   0.68744    0.042
 5578.00    0.72058   0.68819    0.042
 5579.00    0.72011   0.68850    0.042
 5580.00    0.71898   0.68979    0.042
 5581.00    0.71763   0.69229    0.043
 5582.00    0.71625   0.69488    0.043
 5583.00    0.71774   0.69746    0.043
 5584.00    0.71946   0.69976    0.043
 5585.00    0.69280   0.70115    0.043
 5586.00    0.66477   0.70190    0.043
 5587.00    0.65161   0.70187    0.043
 5588.00    0.63882   0.70042    0.044
 5589.00    0.63479   0.69760    0.043
 5590.00    0.63099   0.69305    0.043
 5591.00    0.63178   0.68589    0.043
 5592.00    0.63315   0.67620    0.044
 5593.00    0.64127   0.66546    0.044
 5594.00    0.64844   0.65646    0.045
 5595.00    0.64804   0.65185    0.045
 5596.00    0.65109   0.65245    0.045
 5597.00    0.67493   0.65701    0.045
 5598.00    0.69120   0.66304    0.045
 5599.00    0.67133   0.66869    0.045
 5600.00    0.65895   0.67359    0.045
 5601.00    0.67568   0.67810    0.045
 5602.00    0.68664   0.68234    0.045
 5603.00    0.67896   0.68474    0.045
 5604.00    0.67400   0.68337    0.045
 5605.00    0.67653   0.67885    0.044
 5606.00    0.68102   0.67335    0.044
 5607.00    0.69010   0.66849    0.043
 5608.00    0.69641   0.66598    0.042
 5609.00    0.69712   0.66749    0.042
 5610.00    0.69913   0.67370    0.042
 5611.00    0.70346   0.68366    0.042
 5612.00    0.69990   0.69467    0.042
 5613.00    0.68417   0.70399    0.042
 5614.00    0.67963   0.71013    0.042
 5615.00    0.69029   0.71307    0.041
 5616.00    0.69897   0.71386    0.042
 5617.00    0.70529   0.71335    0.042
 5618.00    0.70165   0.71116    0.042
 5619.00    0.68753   0.70597    0.041
 5620.00    0.67907   0.69704    0.041
 5621.00    0.67588   0.68551    0.040
 5622.00    0.68060   0.67526    0.041
 5623.00    0.69179   0.67063    0.041
 5624.00    0.68846   0.67191    0.041
 5625.00    0.67467   0.67615    0.041
 5626.00    0.66766   0.68097    0.041
 5627.00    0.66494   0.68475    0.041
 5628.00    0.67112   0.68624    0.042
 5629.00    0.68222   0.68481    0.042
 5630.00    0.68026   0.68071    0.042
 5631.00    0.67201   0.67603    0.042
 5632.00    0.68983   0.67418    0.042
 5633.00    0.71848   0.67668    0.043
 5634.00    0.70805   0.68229    0.043
 5635.00    0.68372   0.68930    0.043
 5636.00    0.67236   0.69609    0.043
 5637.00    0.66489   0.70095    0.043
 5638.00    0.66381   0.70318    0.043
 5639.00    0.66433   0.70285    0.043
 5640.00    0.66432   0.70024    0.043
 5641.00    0.66421   0.69604    0.042
 5642.00    0.64868   0.69119    0.043
 5643.00    0.63071   0.68662    0.043
 5644.00    0.65210   0.68307    0.043
 5645.00    0.67812   0.68100    0.043
 5646.00    0.67713   0.68003    0.043
 5647.00    0.67397   0.67936    0.042
 5648.00    0.67235   0.67909    0.042
 5649.00    0.67080   0.68006    0.042
 5650.00    0.68645   0.68207    0.042
 5651.00    0.70179   0.68453    0.042
 5652.00    0.69264   0.68717    0.042
 5653.00    0.68427   0.68939    0.041
 5654.00    0.69022   0.69094    0.041
 5655.00    0.69472   0.69201    0.041
 5656.00    0.68330   0.69294    0.041
 5657.00    0.66920   0.69428    0.040
 5658.00    0.63438   0.69583    0.041
 5659.00    0.60806   0.69659    0.041
 5660.00    0.63160   0.69543    0.040
 5661.00    0.65270   0.69161    0.040
 5662.00    0.66240   0.68561    0.040
 5663.00    0.66840   0.67860    0.041
 5664.00    0.66031   0.67087    0.040
 5665.00    0.65541   0.66403    0.040
 5666.00    0.66060   0.66142    0.041
 5667.00    0.66539   0.66312    0.041
 5668.00    0.66909   0.66622    0.041
 5669.00    0.67407   0.66970    0.041
 5670.00    0.68203   0.67408    0.041
 5671.00    0.68553   0.67868    0.041
 5672.00    0.68018   0.68204    0.042
 5673.00    0.68765   0.68338    0.042
 5674.00    0.71745   0.68299    0.042
 5675.00    0.72206   0.68250    0.042
 5676.00    0.68832   0.68351    0.042
 5677.00    0.67045   0.68642    0.043
 5678.00    0.67381   0.69091    0.043
 5679.00    0.67547   0.69627    0.044
 5680.00    0.67511   0.70122    0.043
 5681.00    0.67444   0.70438    0.043
 5682.00    0.67345   0.70562    0.043
 5683.00    0.67524   0.70584    0.042
 5684.00    0.67958   0.70514    0.042
 5685.00    0.67993   0.70300    0.042
 5686.00    0.67705   0.69960    0.041
 5687.00    0.67613   0.69563    0.041
 5688.00    0.67660   0.69132    0.042
 5689.00    0.66980   0.68705    0.041
 5690.00    0.65848   0.68408    0.041
 5691.00    0.65717   0.68277    0.041
 5692.00    0.66133   0.68199    0.041
 5693.00    0.67136   0.68086    0.041
 5694.00    0.68417   0.67996    0.041
 5695.00    0.69107   0.68077    0.041
 5696.00    0.69556   0.68418    0.042
 5697.00    0.69077   0.68961    0.042
 5698.00    0.68273   0.69539    0.042
 5699.00    0.68042   0.70011    0.042
 5700.00    0.67979   0.70268    0.041
 5701.00    0.68573   0.70271    0.041
 5702.00    0.69328   0.70079    0.041
 5703.00    0.70594   0.69767    0.041
 5704.00    0.71961   0.69342    0.041
 5705.00    0.71944   0.68812    0.041
 5706.00    0.71714   0.68291    0.041
 5707.00    0.70125   0.67855    0.041
 5708.00    0.68383   0.67532    0.041
 5709.00    0.67216   0.67390    0.041
 5710.00    0.66093   0.67407    0.041
 5711.00    0.64326   0.67416    0.041
 5712.00    0.62533   0.67213    0.041
 5713.00    0.64974   0.66738    0.041
 5714.00    0.67398   0.66128    0.041
 5715.00    0.67788   0.65549    0.042
 5716.00    0.68101   0.65173    0.042
 5717.00    0.67099   0.65186    0.042
 5718.00    0.66320   0.65566    0.041
 5719.00    0.67885   0.66234    0.041
 5720.00    0.69150   0.67142    0.042
 5721.00    0.68164   0.68068    0.041
 5722.00    0.67625   0.68811    0.041
 5723.00    0.69642   0.69351    0.041
 5724.00    0.71543   0.69714    0.041
 5725.00    0.72916   0.69981    0.041
 5726.00    0.73787   0.70265    0.041
 5727.00    0.72791   0.70574    0.041
 5728.00    0.71522   0.70865    0.041
 5729.00    0.69407   0.71088    0.041
 5730.00    0.67703   0.71149    0.040
 5731.00    0.67083   0.70986    0.040
 5732.00    0.66684   0.70651    0.040
 5733.00    0.66783   0.70238    0.039
 5734.00    0.67382   0.69865    0.039
 5735.00    0.68964   0.69666    0.040
 5736.00    0.70016   0.69645    0.040
 5737.00    0.70160   0.69671    0.040
 5738.00    0.69940   0.69683    0.040
 5739.00    0.69174   0.69782    0.040
 5740.00    0.68701   0.70015    0.000
 5741.00    0.68617   0.70279    0.000
 5742.00    0.69039   0.70454    0.000
 5743.00    0.70049   0.70488    0.000
 5744.00    0.71195   0.70399    0.000
 5745.00    0.72481   0.70261    0.000
 5746.00    0.72607   0.70128    0.000
 5747.00    0.71687   0.70026    0.000
 5748.00    0.70847   0.69986    0.000
 5749.00    0.70072   0.70019    0.000
 5750.00    0.69704   0.70121    0.000
 5751.00    0.69620   0.70270    0.000
 5752.00    0.69969   0.70385    0.000
 5753.00    0.70585   0.70372    0.000
 5754.00    0.70739   0.70207    0.000
 5755.00    0.70647   0.69989    0.000
 5756.00    0.70550   0.69846    0.000
 5757.00    0.70451   0.69745    0.000
 5758.00    0.70391   0.69525    0.000
 5759.00    0.70345   0.69145    0.000
 5760.00    0.70145   0.68772    0.000
 5761.00    0.69892   0.68660    0.000
 5762.00    0.69289   0.68952    0.000
 5763.00    0.68584   0.69519    0.000
 5764.00    0.68296   0.70032    0.000
 5765.00    0.68108   0.70212    0.000
 5766.00    0.69628   0.69966    0.000
 5767.00    0.71476   0.69412    0.000
 5768.00    0.72784   0.68830    0.000
 5769.00    0.74010   0.68503    0.000
 5770.00    0.75553   0.68599    0.000
 5771.00    0.77129   0.69115    0.000
 5772.00    0.75424   0.69823    0.000
 5773.00    0.73484   0.70427    0.000
 5774.00    0.73053   0.70791    0.000
 5775.00    0.72678   0.70913    0.000
 5776.00    0.72146   0.70837    0.000
 5777.00    0.71589   0.70648    0.000
 5778.00    0.70178   0.70416    0.000
 5779.00    0.68827   0.70182    0.000
 5780.00    0.68431   0.69999    0.000
 5781.00    0.67944   0.69894    0.000
 5782.00    0.66542   0.69848    0.000
 5783.00    0.65376   0.69813    0.000
 5784.00    0.65923   0.69670    0.000
 5785.00    0.66404   0.69269    0.000
 5786.00    0.66522   0.68572    0.000
 5787.00    0.66725   0.67671    0.000
 5788.00    0.67302   0.66754    0.000
 5789.00    0.68049   0.66062    0.000
 5790.00    0.69418   0.65747    0.000
 5791.00    0.70094   0.65769   -2.000
 5792.00    0.68653   0.66036   -2.000
 5793.00    0.67275   0.66541   -2.000
 5794.00    0.66056   0.67220   -2.000
 5795.00    0.64820   0.67871   -2.000
 5796.00    0.63547   0.68343   -2.000
 5797.00    0.64386   0.68631   -2.000
 5798.00    0.69312   0.68825   -2.000
 5799.00    0.72536   0.69079   -2.000
 5800.00    0.72890   0.69443   -2.000
 5801.00    0.72617   0.69772   -2.000
 5802.00    0.71419   0.69937   -2.000
 5803.00    0.70982   0.69926   -2.000
 5804.00    0.71536   0.69825   -2.000
 5805.00    0.71675   0.69824   -2.000
 5806.00    0.71341   0.70099   -2.000
 5807.00    0.71136   0.70580   -2.000
 5808.00    0.71060   0.70984   -2.000
 5809.00    0.70305   0.71108   -2.000
 5810.00    0.68945   0.70925   -2.000
 5811.00    0.69164   0.70529    0.000
 5812.00    0.70622   0.70122    0.000
 5813.00    0.70495   0.69894    0.000
 5814.00    0.69275   0.69889    0.000
 5815.00    0.67801   0.70031    0.000
 5816.00    0.66173   0.70228    0.000
 5817.00    0.67795   0.70410    0.000
 5818.00    0.71134   0.70517    0.000
 5819.00    0.71797   0.70484    0.000
 5820.00    0.71234   0.70292    0.000
 5821.00    0.72037   0.70002    0.000
 5822.00    0.73381   0.69727    0.000
 5823.00    0.75041   0.69599    0.000
 5824.00    0.76808   0.69726    0.000
 5825.00    0.77151   0.70101    0.000
 5826.00    0.77093   0.70560    0.000
 5827.00    0.75774   0.70911    0.000
 5828.00    0.74160   0.71083    0.000
 5829.00    0.73741   0.71107    0.000
 5830.00    0.73546   0.71046    0.000
 5831.00    0.72091   0.70985    0.000
 5832.00    0.70455   0.70981    0.000
 5833.00    0.69822   0.71033    0.000
 5834.00    0.69294   0.71103    0.000
 5835.00    0.68478   0.71170    0.000
 5836.00    0.67643   0.71223    0.000
 5837.00    0.68990   0.71237    0.000
 5838.00    0.70408   0.71170    0.000
 5839.00    0.70935   0.71021    0.000
 5840.00    0.71415   0.70840    0.000
 5841.00    0.70416   0.70664    0.000
 5842.00    0.69578   0.70510    0.000
 5843.00    0.71173   0.70429    0.000
 5844.00    0.72656   0.70447    0.000
 5845.00    0.73065   0.70516    0.000
 5846.00    0.73424   0.70631    0.000
 5847.00    0.73438   0.70837    0.000
 5848.00    0.73179   0.71087    0.000
 5849.00    0.71438   0.71253    0.000
 5850.00    0.70404   0.71252    0.000
 5851.00    0.72426   0.71065    0.000
 5852.00    0.73384   0.70727    0.000
 5853.00    0.70544   0.70324    0.000
 5854.00    0.68172   0.69944    0.000
 5855.00    0.67199   0.69642    0.000
 5856.00    0.66966   0.69411    0.000
 5857.00    0.68620   0.69167    0.000
 5858.00    0.69335   0.68835    0.000
 5859.00    0.67985   0.68425    0.000
 5860.00    0.66994   0.67992    0.000
 5861.00    0.66687   0.67597    0.000
 5862.00    0.66905   0.67288    0.000
 5863.00    0.67996   0.67035    0.000
 5864.00    0.68429   0.66804    0.000
 5865.00    0.67906   0.66692    0.000
 5866.00    0.67204   0.66846    0.000
 5867.00    0.66275   0.67238    0.000
 5868.00    0.65684   0.67684    0.000
 5869.00    0.65475   0.68031    0.000
 5870.00    0.66059   0.68218    0.000
 5871.00    0.67431   0.68288    0.000
 5872.00    0.68074   0.68320    0.000
 5873.00    0.68075   0.68351    0.000
 5874.00    0.67704   0.68426    0.000
 5875.00    0.67046   0.68626    0.000
 5876.00    0.66745   0.68934    0.000
 5877.00    0.66689   0.69197    0.000
 5878.00    0.67452   0.69262    0.000
 5879.00    0.68705   0.69074    0.000
 5880.00    0.68861   0.68669    0.000
 5881.00    0.68447   0.68174    0.000
 5882.00    0.68189   0.67719    0.000
 5883.00    0.68000   0.67400    0.000
 5884.00    0.66419   0.67244    0.000
 5885.00    0.64299   0.67223    0.000
 5886.00    0.63268   0.67264    0.000
 5887.00    0.62598   0.67270    0.000
 5888.00    0.60907   0.67253    0.000
 5889.00    0.58934   0.67257    0.000
 5890.00    0.57364   0.67236    0.000
 5891.00    0.55886   0.67042    0.000
 5892.00    0.55084   0.66500    0.000
 5893.00    0.54405   0.65397    0.000
 5894.00    0.54455   0.63555    0.000
 5895.00    0.54608   0.61126    0.000
 5896.00    0.55983   0.58645    0.000
 5897.00    0.57482   0.56784    0.000
 5898.00    0.58864   0.56084    0.000
 5899.00    0.60239   0.56510    0.000
 5900.00    0.60777   0.57294    0.000
 5901.00    0.61294   0.57741    0.038
 5902.00    0.62655   0.57820    0.038
 5903.00    0.63992   0.57906    0.038
 5904.00    0.64631   0.58522    0.038
 5905.00    0.65304   0.59961    0.038
 5906.00    0.66466   0.61867    0.037
 5907.00    0.67579   0.63660    0.037
 5908.00    0.68237   0.65078    0.037
 5909.00    0.68888   0.66088    0.037
 5910.00    0.69488   0.66704    0.037
 5911.00    0.69802   0.67028    0.037
 5912.00    0.68610   0.67200    0.037
 5913.00    0.67397   0.67314    0.036
 5914.00    0.66097   0.67438    0.036
 5915.00    0.65232   0.67611    0.036
 5916.00    0.65887   0.67794    0.036
 5917.00    0.66303   0.67895    0.036
 5918.00    0.66020   0.67839    0.036
 5919.00    0.66102   0.67616    0.036
 5920.00    0.67098   0.67256    0.036
 5921.00    0.67765   0.66842    0.037
 5922.00    0.67720   0.66532    0.037
 5923.00    0.67638   0.66462    0.036
 5924.00    0.67488   0.66638    0.037
 5925.00    0.67372   0.66961    0.037
 5926.00    0.67311   0.67292    0.037
 5927.00    0.66911   0.67534    0.037
 5928.00    0.66025   0.67679    0.037
 5929.00    0.65923   0.67754    0.037
 5930.00    0.66813   0.67803    0.037
 5931.00    0.67384   0.67880    0.038
 5932.00    0.67598   0.67965    0.038
 5933.00    0.67824   0.67980    0.038
 5934.00    0.68061   0.67874    0.037
 5935.00    0.68131   0.67670    0.037
 5936.00    0.68059   0.67462    0.037
 5937.00    0.68454   0.67345    0.037
 5938.00    0.69205   0.67348    0.037
 5939.00    0.68894   0.67427    0.037
 5940.00    0.67869   0.67508    0.037
 5941.00    0.66823   0.67532    0.036
 5942.00    0.65763   0.67529    0.036
 5943.00    0.66202   0.67599    0.036
 5944.00    0.67407   0.67777    0.037
 5945.00    0.66956   0.67944    0.036
 5946.00    0.65769   0.67972    0.036
 5947.00    0.65364   0.67859    0.036
 5948.00    0.65257   0.67683    0.036
 5949.00    0.65557   0.67556    0.036
 5950.00    0.65989   0.67593    0.036
 5951.00    0.66750   0.67796    0.036
 5952.00    0.67600   0.68021    0.036
 5953.00    0.68644   0.68113    0.036
 5954.00    0.69730   0.68022    0.036
 5955.00    0.70336   0.67798    0.036
 5956.00    0.70857   0.67531    0.036
 5957.00    0.69541   0.67301    0.036
 5958.00    0.67978   0.67170    0.036
 5959.00    0.67812   0.67128    0.036
 5960.00    0.67780   0.67089    0.036
 5961.00    0.68186   0.67015    0.036
 5962.00    0.68620   0.66962    0.037
 5963.00    0.69268   0.66962    0.037
 5964.00    0.69923   0.67008    0.037
 5965.00    0.70677   0.67150    0.037
 5966.00    0.71359   0.67452    0.037
 5967.00    0.70212   0.67875    0.037
 5968.00    0.69137   0.68288    0.036
 5969.00    0.69012   0.68572    0.036
 5970.00    0.68937   0.68669    0.036
 5971.00    0.69305   0.68610    0.036
 5972.00    0.69660   0.68499    0.036
 5973.00    0.69929   0.68428    0.036
 5974.00    0.69944   0.68459    0.036
 5975.00    0.68656   0.68617    0.036
 5976.00    0.67537   0.68858    0.036
 5977.00    0.67119   0.69078    0.035
 5978.00    0.66642   0.69206    0.035
 5979.00    0.65962   0.69197    0.035
 5980.00    0.65630   0.69011    0.035
 5981.00    0.66300   0.68649    0.035
 5982.00    0.66847   0.68179    0.035
 5983.00    0.67093   0.67704    0.035
 5984.00    0.67260   0.67345    0.035
 5985.00    0.67258   0.67205    0.036
 5986.00    0.67267   0.67276    0.036
 5987.00    0.67298   0.67430    0.036
 5988.00    0.67316   0.67495    0.036
 5989.00    0.67314   0.67363    0.036
 5990.00    0.67510   0.67071    0.036
 5991.00    0.67986   0.66766    0.036
 5992.00    0.67780   0.66598    0.036
 5993.00    0.66724   0.66667    0.036
 5994.00    0.66117   0.66966    0.036
 5995.00    0.66001   0.67337    0.036
 5996.00    0.66303   0.67619    0.036
 5997.00    0.67007   0.67811    0.037
 5998.00    0.67432   0.67980    0.037
 5999.00    0.67618   0.68150    0.036
 6000.00    0.67052   0.68313    0.036
 6001.00    0.65921   0.68439    0.036
 6002.00    0.65490   0.68456    0.036
 6003.00    0.65520   0.68306    0.036
 6004.00    0.66231   0.68040    0.036
 6005.00    0.67337   0.67777    0.035
 6006.00    0.67462   0.67603    0.035
 6007.00    0.67093   0.67519    0.035
 6008.00    0.66803   0.67477    0.035
 6009.00    0.66548   0.67435    0.035
 6010.00    0.66776   0.67356    0.035
 6011.00    0.67186   0.67215    0.035
 6012.00    0.67534   0.67021    0.035
 6013.00    0.67864   0.66790    0.036
 6014.00    0.67889   0.66570    0.036
 6015.00    0.67834   0.66458    0.035
 6016.00    0.67476   0.66515    0.036
 6017.00    0.67052   0.66706    0.036
 6018.00    0.66263   0.66934    0.036
 6019.00    0.65412   0.67070    0.036
 6020.00    0.64552   0.67045    0.036
 6021.00    0.63691   0.66901    0.036
 6022.00    0.64823   0.66759    0.036
 6023.00    0.66139   0.66690    0.036
 6024.00    0.66395   0.66636    0.036
 6025.00    0.66592   0.66535    0.036
 6026.00    0.66355   0.66426    0.036
 6027.00    0.66123   0.66361    0.036
 6028.00    0.67319   0.66345    0.036
 6029.00    0.68527   0.66406    0.037
 6030.00    0.70013   0.66594    0.036
 6031.00    0.71470   0.66881    0.036
 6032.00    0.72548   0.67196    0.036
 6033.00    0.73328   0.67518    0.036
 6034.00    0.71547   0.67845    0.036
 6035.00    0.69909   0.68138    0.036
 6036.00    0.69185   0.68373    0.036
 6037.00    0.68686   0.68579    0.035
 6038.00    0.69311   0.68758    0.035
 6039.00    0.69903   0.68895    0.034
 6040.00    0.70364   0.69007    0.035
 6041.00    0.70737   0.69111    0.035
 6042.00    0.70814   0.69190    0.035
 6043.00    0.70898   0.69217    0.035
 6044.00    0.71001   0.69181    0.035
 6045.00    0.71004   0.69091    0.035
 6046.00    0.70767   0.68973    0.035
 6047.00    0.70426   0.68860    0.035
 6048.00    0.69866   0.68805    0.035
 6049.00    0.69466   0.68854    0.035
 6050.00    0.69356   0.69007    0.035
 6051.00    0.69651   0.69225    0.036
 6052.00    0.70589   0.69452    0.036
 6053.00    0.71022   0.69629    0.036
 6054.00    0.70752   0.69724    0.036
 6055.00    0.70740   0.69753    0.036
 6056.00    0.71042   0.69738    0.036
 6057.00    0.70699   0.69675    0.035
 6058.00    0.69659   0.69556    0.034
 6059.00    0.68520   0.69377    0.033
 6060.00    0.67288   0.69131    0.033
 6061.00    0.66714   0.68832    0.033
 6062.00    0.66694   0.68541    0.033
 6063.00    0.66318   0.68333    0.033
 6064.00    0.65678   0.68261    0.032
 6065.00    0.64953   0.68325    0.032
 6066.00    0.64173   0.68477    0.032
 6067.00    0.64711   0.68616    0.033
 6068.00    0.66000   0.68625    0.035
 6069.00    0.67571   0.68427    0.035
 6070.00    0.69281   0.68039    0.035
 6071.00    0.69756   0.67619    0.035
 6072.00    0.69701   0.67389    0.035
 6073.00    0.69295   0.67481    0.035
 6074.00    0.68760   0.67892    0.034
 6075.00    0.68477   0.68512    0.035
 6076.00    0.68272   0.69164    0.035
 6077.00    0.67992   0.69679    0.035
 6078.00    0.67693   0.69988    0.035
 6079.00    0.68581   0.70131    0.035
 6080.00    0.69721   0.70159    0.035
 6081.00    0.70229   0.70081    0.035
 6082.00    0.70630   0.69880    0.035
 6083.00    0.69599   0.69542    0.035
 6084.00    0.68387   0.69101    0.035
 6085.00    0.67522   0.68633    0.036
 6086.00    0.66687   0.68191    0.036
 6087.00    0.67456   0.67805    0.036
 6088.00    0.68308   0.67515    0.036
 6089.00    0.68385   0.67346    0.035
 6090.00    0.68430   0.67268    0.035
 6091.00    0.67248   0.67261    0.035
 6092.00    0.66126   0.67338    0.036
 6093.00    0.66285   0.67475    0.035
 6094.00    0.66514   0.67577    0.035
 6095.00    0.67598   0.67570    0.035
 6096.00    0.68573   0.67460    0.035
 6097.00    0.68646   0.67300    0.035
 6098.00    0.68705   0.67155    0.035
 6099.00    0.68673   0.67118    0.035
 6100.00    0.68411   0.67260    0.035
 6101.00    0.67031   0.67550    0.035
 6102.00    0.66122   0.67866    0.035
 6103.00    0.67078   0.68120    0.035
 6104.00    0.68014   0.68287    0.034
 6105.00    0.68882   0.68333    0.034
 6106.00    0.69470   0.68185    0.034
 6107.00    0.69275   0.67771    0.034
 6108.00    0.69313   0.67122    0.035
 6109.00    0.69909   0.66442    0.035
 6110.00    0.70438   0.65985    0.035
 6111.00    0.70828   0.65905    0.035
 6112.00    0.70410   0.66192    0.035
 6113.00    0.68547   0.66717    0.035
 6114.00    0.66886   0.67276    0.035
 6115.00    0.65541   0.67683    0.035
 6116.00    0.65333   0.67899    0.035
 6117.00    0.66689   0.68004    0.035
 6118.00    0.67439   0.68097    0.035
 6119.00    0.67455   0.68227    0.035
 6120.00    0.67391   0.68363    0.035
 6121.00    0.67242   0.68453    0.035
 6122.00    0.67456   0.68482    0.035
 6123.00    0.68012   0.68424    0.035
 6124.00    0.68912   0.68230    0.035
 6125.00    0.70096   0.67855    0.035
 6126.00    0.70411   0.67300    0.035
 6127.00    0.70092   0.66625    0.034
 6128.00    0.69538   0.65979    0.034
 6129.00    0.68834   0.65571    0.034
 6130.00    0.67980   0.65527    0.034
 6131.00    0.67041   0.65793    0.034
 6132.00    0.66710   0.66202    0.034
 6133.00    0.66675   0.66586    0.035
 6134.00    0.65723   0.66838    0.035
 6135.00    0.64385   0.66991    0.035
 6136.00    0.62945   0.67176    0.035
 6137.00    0.61467   0.67445    0.035
 6138.00    0.61900   0.67719    0.035
 6139.00    0.62916   0.67837    0.035
 6140.00    0.63802   0.67605    0.035
 6141.00    0.64653   0.66898    0.035
 6142.00    0.65181   0.65789    0.035
 6143.00    0.65641   0.64607    0.035
 6144.00    0.66422   0.63796    0.035
 6145.00    0.67255   0.63615    0.035
 6146.00    0.68120   0.64001    0.035
 6147.00    0.68989   0.64704    0.035
 6148.00    0.68947   0.65495    0.035
 6149.00    0.68829   0.66219    0.035
 6150.00    0.67131   0.66808    0.035
 6151.00    0.65358   0.67282    0.035
 6152.00    0.65423   0.67652    0.035
 6153.00    0.65509   0.67844    0.035
 6154.00    0.65265   0.67773    0.035
 6155.00    0.64966   0.67473    0.035
 6156.00    0.63586   0.67102    0.035
 6157.00    0.62316   0.66827    0.035
 6158.00    0.62316   0.66728    0.035
 6159.00    0.62330   0.66768    0.035
 6160.00    0.62455   0.66840    0.035
 6161.00    0.62484   0.66863    0.035
 6162.00    0.61936   0.66797    0.035
 6163.00    0.61485   0.66618    0.035
 6164.00    0.61494   0.66301    0.034
 6165.00    0.61624   0.65790    0.034
 6166.00    0.62223   0.64974    0.034
 6167.00    0.62771   0.63813    0.034
 6168.00    0.63157   0.62502    0.034
 6169.00    0.63782   0.61404    0.034
 6170.00    0.65061   0.60820    0.034
 6171.00    0.65793   0.60847    0.034
 6172.00    0.65244   0.61362    0.034
 6173.00    0.64382   0.62073    0.034
 6174.00    0.62887   0.62619    0.034
 6175.00    0.61738   0.62800    0.034
 6176.00    0.61195   0.62746    0.034
 6177.00    0.61282   0.62731    0.034
 6178.00    0.62337   0.62907    0.034
 6179.00    0.63036   0.63271    0.034
 6180.00    0.63251   0.63758    0.034
 6181.00    0.63417   0.64245    0.034
 6182.00    0.63525   0.64606    0.034
 6183.00    0.63436   0.64838    0.035
 6184.00    0.63140   0.65030    0.035
 6185.00    0.62925   0.65229    0.035
 6186.00    0.62784   0.65431    0.035
 6187.00    0.62907   0.65647    0.036
 6188.00    0.63245   0.65865    0.036
 6189.00    0.63053   0.66032    0.036
 6190.00    0.62479   0.66103    0.035
 6191.00    0.61427   0.66035    0.035
 6192.00    0.60073   0.65787    0.035
 6193.00    0.57445   0.65369    0.035
 6194.00    0.54114   0.64841    0.036
 6195.00    0.47291   0.64261    0.037
 6196.00    0.38792   0.63649   -2.000
 6197.00    0.26225   0.63055   -2.000
 6198.00    0.11972   0.62662   -2.000
 6199.00    0.09185   0.62635   -2.000
 6200.00    0.10463   0.62976   -2.000
 6201.00    0.24986   0.63584   -2.000
 6202.00    0.43472   0.64290   -2.000
 6203.00    0.61535   0.64888   -2.000
 6204.00    0.79493   0.65191   -2.000
 6205.00    0.83275   0.65147   -2.000
 6206.00    0.84202   0.64909   -2.000
 6207.00    0.78484   0.64709   -2.000
 6208.00    0.71717   0.64695    0.036
 6209.00    0.68948   0.64885    0.036
 6210.00    0.66646   0.65208    0.036
 6211.00    0.66107   0.65562    0.035
 6212.00    0.65708   0.65862    0.035
 6213.00    0.64360   0.66057    0.035
 6214.00    0.62971   0.66140    0.035
 6215.00    0.63824   0.66116    0.035
 6216.00    0.64669   0.65960    0.034
 6217.00    0.63985   0.65646    0.034
 6218.00    0.63279   0.65149    0.034
 6219.00    0.62173   0.64458    0.034
 6220.00    0.61148   0.63663    0.034
 6221.00    0.61019   0.62922    0.034
 6222.00    0.61036   0.62386    0.033
 6223.00    0.62179   0.62143    0.034
 6224.00    0.62759   0.62136    0.034
 6225.00    0.60045   0.62223    0.034
 6226.00    0.55914   0.62318    0.034
 6227.00    0.45215   0.62407    0.034
 6228.00    0.37197   0.62526    0.033
 6229.00    0.39344   0.62693    0.034
 6230.00    0.43092   0.62891    0.035
 6231.00    0.51906   0.63112    0.035
 6232.00    0.59058   0.63306    0.035
 6233.00    0.61749   0.63393    0.034
 6234.00    0.63398   0.63305    0.034
 6235.00    0.62650   0.62975    0.035
 6236.00    0.62016   0.62410    0.035
 6237.00    0.61609   0.61784    0.035
 6238.00    0.61454   0.61353    0.035
 6239.00    0.61738   0.61301    0.035
 6240.00    0.61540   0.61688    0.034
 6241.00    0.60606   0.62385    0.034
 6242.00    0.60252   0.63119    0.034
 6243.00    0.60671   0.63623    0.034
 6244.00    0.61300   0.63741    0.034
 6245.00    0.62176   0.63488    0.034
 6246.00    0.62770   0.62999    0.034
 6247.00    0.63072   0.62469    0.034
 6248.00    0.63228   0.62003    0.034
 6249.00    0.63251   0.61613    0.034
 6250.00    0.62756   0.61339    0.034
 6251.00    0.61843   0.61213    0.033
 6252.00    0.61486   0.61253    0.033
 6253.00    0.61522   0.61503    0.033
 6254.00    0.61239   0.61952    0.033
 6255.00    0.60756   0.62480    0.034
 6256.00    0.60136   0.62903    0.034
 6257.00    0.59442   0.63046    0.034
 6258.00    0.59076   0.62834    0.035
 6259.00    0.58865   0.62356    0.036
 6260.00    0.55175   0.61784    0.038
 6261.00    0.50068   0.61259    0.040
 6262.00    0.47892   0.60821    0.041
 6263.00    0.46735   0.60452    0.043
 6264.00    0.52798   0.60166    0.043
 6265.00    0.60978   0.60055    0.043
 6266.00    0.67759   0.60225    0.041
 6267.00    0.74200   0.60686    0.039
 6268.00    0.73186   0.61374    0.037
 6269.00    0.70708   0.62156    0.036
 6270.00    0.68060   0.62835    0.035
 6271.00    0.65385   0.63267    0.035
 6272.00    0.64259   0.63464    0.034
 6273.00    0.63307   0.63534    0.034
 6274.00    0.63466   0.63547    0.034
 6275.00    0.63709   0.63538    0.033
 6276.00    0.65067   0.63545    0.033
 6277.00    0.66470   0.63602    0.033
 6278.00    0.67236   0.63724    0.033
 6279.00    0.67967   0.63889    0.034
 6280.00    0.67464   0.64055    0.000
 6281.00    0.66995   0.64187    0.000
 6282.00    0.67097   0.64262    0.000
 6283.00    0.67105   0.64259    0.000
 6284.00    0.66138   0.64166    0.000
 6285.00    0.65240   0.63975    0.000
 6286.00    0.64866   0.63696    0.000
 6287.00    0.64783   0.63408    0.000
 6288.00    0.66358   0.63226    0.000
 6289.00    0.67813   0.63224    0.000
 6290.00    0.68728   0.63405    0.000
 6291.00    0.69332   0.63710    0.000
 6292.00    0.68784   0.64082    0.000
 6293.00    0.68125   0.64491    0.000
 6294.00    0.67119   0.64891    0.000
 6295.00    0.66054   0.65219    0.000
 6296.00    0.64831   0.65400    0.000
 6297.00    0.63796   0.65389    0.000
 6298.00    0.63186   0.65216    0.000
 6299.00    0.62932   0.64953    0.000
 6300.00    0.63374   0.64675    0.000
 6301.00    0.63901   0.64409    0.000
 6302.00    0.64574   0.64116    0.000
 6303.00    0.65074   0.63781    0.000
 6304.00    0.65314   0.63467    0.000
 6305.00    0.65502   0.63242    0.000
 6306.00    0.65620   0.63108    0.000
 6307.00    0.65757   0.63014    0.000
 6308.00    0.65918   0.62942    0.000
 6309.00    0.66149   0.62946    0.000
 6310.00    0.66454   0.63084    0.000
 6311.00    0.66405   0.63354    0.000
 6312.00    0.66038   0.63725    0.000
 6313.00    0.65939   0.64171    0.000
 6314.00    0.66051   0.64630    0.000
 6315.00    0.65696   0.64990    0.000
 6316.00    0.65014   0.65160    0.000
 6317.00    0.64556   0.65116    0.000
 6318.00    0.64237   0.64911    0.000
 6319.00    0.64591   0.64625    0.000
 6320.00    0.65305   0.64304    0.000
 6321.00    0.65710   0.63950    0.035
 6322.00    0.65973   0.63594    0.035
 6323.00    0.65221   0.63283    0.035
 6324.00    0.64063   0.63021    0.035
 6325.00    0.63810   0.62848    0.034
 6326.00    0.63866   0.62857    0.034
 6327.00    0.64308   0.63072    0.034
 6328.00    0.64861   0.63429    0.034
 6329.00    0.65284   0.63855    0.034
 6330.00    0.65675   0.64301    0.034
 6331.00    0.66287   0.64722    0.033
 6332.00    0.66941   0.65065    0.033
 6333.00    0.67501   0.65305    0.033
 6334.00    0.68046   0.65455    0.033
 6335.00    0.66774   0.65549    0.033
 6336.00    0.65306   0.65604    0.033
 6337.00    0.65059   0.65622    0.033
 6338.00    0.64900   0.65637    0.033
 6339.00    0.65563   0.65626    0.034
 6340.00    0.66255   0.65497    0.034
 6341.00    0.66897   0.65163    0.034
 6342.00    0.67502   0.64650    0.034
 6343.00    0.66830   0.64152    0.034
 6344.00    0.66186   0.63879    0.035
 6345.00    0.65978   0.63896    0.035
 6346.00    0.65821   0.64143    0.035
 6347.00    0.66169   0.64500    0.035
 6348.00    0.66536   0.64791    0.035
 6349.00    0.67040   0.64874    0.035
 6350.00    0.67513   0.64733    0.035
 6351.00    0.67811   0.64494    0.035
 6352.00    0.67886   0.64338    0.035
 6353.00    0.66969   0.64359    0.035
 6354.00    0.66155   0.64561    0.035
 6355.00    0.65713   0.64893    0.034
 6356.00    0.65386   0.65259    0.033
 6357.00    0.65408   0.65552    0.033
 6358.00    0.65302   0.65703    0.033
 6359.00    0.64860   0.65673    0.033
 6360.00    0.64553   0.65449    0.034
 6361.00    0.64545   0.65065    0.034
 6362.00    0.64570   0.64617    0.034
 6363.00    0.64661   0.64188    0.034
 6364.00    0.64791   0.63761    0.034
 6365.00    0.64988   0.63295    0.034
 6366.00    0.65479   0.62833    0.035
 6367.00    0.66403   0.62442    0.035
 6368.00    0.66654   0.62149    0.035
 6369.00    0.66029   0.61986    0.035
 6370.00    0.65679   0.62015    0.036
 6371.00    0.65643   0.62262    0.036
 6372.00    0.65993   0.62696    0.035
 6373.00    0.66733   0.63252    0.035
 6374.00    0.67568   0.63853    0.035
 6375.00    0.68489   0.64416    0.035
 6376.00    0.68725   0.64860    0.035
 6377.00    0.68425   0.65177    0.035
 6378.00    0.67459   0.65435    0.035
 6379.00    0.66036   0.65698    0.035
 6380.00    0.65997   0.65957    0.034
 6381.00    0.66794   0.66157    0.034
 6382.00    0.67510   0.66254    0.034
 6383.00    0.68182   0.66233    0.033
 6384.00    0.68060   0.66083    0.033
 6385.00    0.67574   0.65816    0.033
 6386.00    0.66930   0.65512    0.033
 6387.00    0.66224   0.65264    0.033
 6388.00    0.65358   0.65128    0.033
 6389.00    0.64439   0.65121    0.033
 6390.00    0.64715   0.65198    0.034
 6391.00    0.65328   0.65300    0.034
 6392.00    0.65205   0.65410    0.034
 6393.00    0.64913   0.65534    0.035
 6394.00    0.63779   0.65651    0.035
 6395.00    0.62488   0.65720    0.036
 6396.00    0.64253   0.65702    0.036
 6397.00    0.66458   0.65559    0.037
 6398.00    0.67621   0.65257    0.036
 6399.00    0.68676   0.64812    0.036
 6400.00    0.68322   0.64341    0.036
 6401.00    0.67874   0.64066    0.036
 6402.00    0.68096   0.64119    0.036
 6403.00    0.68340   0.64407    0.036
 6404.00    0.68635   0.64702    0.036
 6405.00    0.68893   0.64793    0.035
 6406.00    0.67987   0.64606    0.035
 6407.00    0.67170   0.64304    0.035
 6408.00    0.67667   0.64208    0.034
 6409.00    0.68125   0.64474    0.034
 6410.00    0.68204   0.64979    0.034
 6411.00    0.68191   0.65495    0.034
 6412.00    0.67531   0.65820    0.033
 6413.00    0.66961   0.65860    0.033
 6414.00    0.66884   0.65654    0.033
 6415.00    0.66945   0.65342    0.034
 6416.00    0.67602   0.65082    0.034
 6417.00    0.68117   0.64912    0.034
 6418.00    0.68128   0.64775    0.035
 6419.00    0.67554   0.64678    0.035
 6420.00    0.65228   0.64675    0.035
 6421.00    0.63764   0.64771    0.035
 6422.00    0.64491   0.64929    0.035
 6423.00    0.65725   0.65083    0.035
 6424.00    0.68067   0.65140    0.035
 6425.00    0.69144   0.65032    0.036
 6426.00    0.67818   0.64764    0.036
 6427.00    0.66804   0.64437    0.036
 6428.00    0.66306   0.64227    0.036
 6429.00    0.66041   0.64307    0.036
 6430.00    0.66115   0.64698    0.036
 6431.00    0.66408   0.65244    0.035
 6432.00    0.66982   0.65757    0.035
 6433.00    0.67399   0.66124    0.035
 6434.00    0.67638   0.66285    0.035
 6435.00    0.67435   0.66192    0.034
 6436.00    0.66793   0.65837    0.034
 6437.00    0.66382   0.65296    0.034
 6438.00    0.66173   0.64762    0.034
 6439.00    0.66550   0.64475    0.034
 6440.00    0.67378   0.64537    0.035
 6441.00    0.67655   0.64848    0.035
 6442.00    0.67559   0.65209    0.035
 6443.00    0.67039   0.65435    0.035
 6444.00    0.66267   0.65429    0.035
 6445.00    0.65453   0.65218    0.035
 6446.00    0.64617   0.64980    0.035
 6447.00    0.64009   0.64958    0.036
 6448.00    0.63502   0.65271    0.036
 6449.00    0.63822   0.65806    0.036
 6450.00    0.64460   0.66365    0.037
 6451.00    0.64900   0.66798    0.036
 6452.00    0.65274   0.67011    0.036
 6453.00    0.66533   0.66950    0.036
 6454.00    0.68037   0.66573    0.035
 6455.00    0.68800   0.65871    0.035
 6456.00    0.69395   0.64943    0.035
 6457.00    0.69136   0.64052    0.035
 6458.00    0.68722   0.63543    0.034
 6459.00    0.67373   0.63577    0.034
 6460.00    0.65895   0.63992    0.034
 6461.00    0.65868   0.64503    0.034
 6462.00    0.65986   0.64902    0.034
 6463.00    0.65523   0.65156    0.034
 6464.00    0.65024   0.65388    0.034
 6465.00    0.65933   0.65679    0.034
 6466.00    0.66884   0.65940    0.035
 6467.00    0.68429   0.66005    0.035
 6468.00    0.69911   0.65767    0.035
 6469.00    0.69655   0.65267    0.036
 6470.00    0.69353   0.64731    0.036
 6471.00    0.68409   0.64480    0.036
 6472.00    0.67541   0.64652    0.036
 6473.00    0.67368   0.65099    0.036
 6474.00    0.67219   0.65596    0.037
 6475.00    0.67229   0.65960    0.037
 6476.00    0.67477   0.66095    0.037
 6477.00    0.68977   0.66016    0.036
 6478.00    0.70128   0.65825    0.036
 6479.00    0.69804   0.65631    0.036
 6480.00    0.69527   0.65516    0.036
 6481.00    0.69410   0.65495    0.036
 6482.00    0.69071   0.65512    0.035
 6483.00    0.68083   0.65550    0.034
 6484.00    0.67298   0.65631    0.034
 6485.00    0.67022   0.65707    0.034
 6486.00    0.67071   0.65671    0.035
 6487.00    0.67821   0.65465    0.034
 6488.00    0.68509   0.65096    0.034
 6489.00    0.69080   0.64640    0.034
 6490.00    0.68789   0.64268    0.035
 6491.00    0.67091   0.64159    0.035
 6492.00    0.65596   0.64334    0.035
 6493.00    0.64394   0.64667    0.035
 6494.00    0.64081   0.64992    0.035
 6495.00    0.64886   0.65176    0.035
 6496.00    0.64969   0.65132    0.036
 6497.00    0.64248   0.64804    0.036
 6498.00    0.63623   0.64177    0.036
 6499.00    0.63093   0.63272    0.036
 6500.00    0.62823   0.62136    0.036
 6501.00    0.62779   0.60855    0.036
 6502.00    0.62609   0.59639    0.036
 6503.00    0.62343   0.58802    0.035
 6504.00    0.62605   0.58541    0.035
 6505.00    0.63221   0.58842    0.035
 6506.00    0.64594   0.59561    0.035
 6507.00    0.66410   0.60500    0.036
 6508.00    0.67440   0.61518    0.036
 6509.00    0.68070   0.62505    0.036
 6510.00    0.69057   0.63361    0.036
 6511.00    0.70204   0.64040    0.035
 6512.00    0.70081   0.64534    0.035
 6513.00    0.69475   0.64854    0.035
 6514.00    0.68809   0.65024    0.035
 6515.00    0.68122   0.65074    0.035
 6516.00    0.67744   0.65063    0.036
 6517.00    0.67449   0.65065    0.036
 6518.00    0.66531   0.65114    0.036
 6519.00    0.65476   0.65167    0.036
 6520.00    0.66228   0.65156    0.036
 6521.00    0.67300   0.65038    0.036
 6522.00    0.68403   0.64811    0.036
 6523.00    0.69510   0.64508    0.036
 6524.00    0.69058   0.64215    0.037
 6525.00    0.68458   0.64026    0.037
 6526.00    0.69405   0.63997    0.037
 6527.00    0.70443   0.64150    0.037
 6528.00    0.71314   0.64453    0.000
 6529.00    0.72168   0.64799    0.000
 6530.00    0.71140   0.65077    0.000
 6531.00    0.70176   0.65227    0.000
 6532.00    0.70829   0.65244    0.000
 6533.00    0.71406   0.65156    0.000
 6534.00    0.70977   0.65005    0.000
 6535.00    0.70517   0.64862    0.000
 6536.00    0.69792   0.64791    0.000
 6537.00    0.69263   0.64784    0.000
 6538.00    0.70018   0.64776    0.000
 6539.00    0.70482   0.64729    0.000
 6540.00    0.69465   0.64671    0.000
 6541.00    0.68493   0.64672    0.000
 6542.00    0.67710   0.64777    0.000
 6543.00    0.67110   0.64965    0.000
 6544.00    0.67135   0.65166    0.000
 6545.00    0.67537   0.65326    0.000
 6546.00    0.69023   0.65433    0.000
 6547.00    0.70057   0.65487    0.000
 6548.00    0.69976   0.65447    0.000
 6549.00    0.70360   0.65256    0.000
 6550.00    0.71727   0.64898    0.000
 6551.00    0.72256   0.64418    0.000
 6552.00    0.71240   0.63894    0.000
 6553.00    0.70234   0.63416    0.000
 6554.00    0.69246   0.63064    0.000
 6555.00    0.68581   0.62896    0.000
 6556.00    0.68370   0.62895    0.000
 6557.00    0.67844   0.62937    0.000
 6558.00    0.66925   0.62879    0.000
 6559.00    0.65851   0.62652    0.000
 6560.00    0.64608   0.62267    0.000
 6561.00    0.63566   0.61776    0.000
 6562.00    0.62719   0.61233    0.000
 6563.00    0.61828   0.60684    0.000
 6564.00    0.60901   0.60136    0.000
 6565.00    0.61276   0.59499    0.000
 6566.00    0.62627   0.58573    0.000
 6567.00    0.63353   0.57149    0.000
 6568.00    0.63668   0.55204    0.000
 6569.00    0.64027   0.53029    0.000
 6570.00    0.64413   0.51194    0.000
 6571.00    0.64626   0.50371    0.000
 6572.00    0.64754   0.51032    0.000
 6573.00    0.65076   0.52997    0.000
 6574.00    0.65484   0.55451    0.000
 6575.00    0.65946   0.57625    0.000
 6576.00    0.66428   0.59181    0.000
 6577.00    0.66609   0.60099    0.000
 6578.00    0.66694   0.60532    0.000
 6579.00    0.66698   0.60693    0.000
 6580.00    0.66680   0.60731    0.000
 6581.00    0.68856   0.60754    0.000
 6582.00    0.71507   0.60891    0.000
 6583.00    0.73972   0.61227    0.000
 6584.00    0.76406   0.61737    0.000
 6585.00    0.75995   0.62304    0.000
 6586.00    0.75214   0.62769    0.000
 6587.00    0.72604   0.63043    0.000
 6588.00    0.69827   0.63152    0.000
 6589.00    0.67699   0.63188    0.000
 6590.00    0.65607   0.63247    0.000
 6591.00    0.66395   0.63379    0.000
 6592.00    0.67226   0.63555    0.000
 6593.00    0.66210   0.63729    0.000
 6594.00    0.65204   0.63888    0.000
 6595.00    0.64437   0.64018    0.000
 6596.00    0.63823   0.64086    0.000
 6597.00    0.65147   0.63998    0.000
 6598.00    0.66399   0.63668    0.000
 6599.00    0.67047   0.63120    0.000
 6600.00    0.67654   0.62493    0.000
 6601.00    0.67998   0.61986    0.000
 6602.00    0.68544   0.61787    0.000
 6603.00    0.70092   0.61953    0.000
 6604.00    0.70826   0.62348    0.000
 6605.00    0.68272   0.62774    0.000
 6606.00    0.66260   0.63136    0.000
 6607.00    0.66063   0.63447    0.000
 6608.00    0.65965   0.63736    0.000
 6609.00    0.66144   0.63977    0.038
 6610.00    0.66554   0.64091    0.038
 6611.00    0.67523   0.64017    0.037
 6612.00    0.68358   0.63771    0.037
 6613.00    0.68915   0.63419    0.038
 6614.00    0.68978   0.63053    0.038
 6615.00    0.68144   0.62757    0.038
 6616.00    0.67471   0.62599    0.037
 6617.00    0.67056   0.62618    0.037
 6618.00    0.67108   0.62820    0.037
 6619.00    0.67808   0.63160    0.038
 6620.00    0.68612   0.63539    0.038
 6621.00    0.69544   0.63853    0.039
 6622.00    0.69667   0.64078    0.039
 6623.00    0.68916   0.64258    0.039
 6624.00    0.68143   0.64430    0.039
 6625.00    0.67350   0.64579    0.039
 6626.00    0.68191   0.64675    0.039
 6627.00    0.70405   0.64713    0.040
 6628.00    0.70427   0.64681    0.040
 6629.00    0.68829   0.64550    0.040
 6630.00    0.69020   0.64302    0.039
 6631.00    0.70374   0.63966    0.039
 6632.00    0.69029   0.63625    0.039
 6633.00    0.66150   0.63371    0.039
 6634.00    0.64781   0.63258    0.039
 6635.00    0.64160   0.63268    0.038
 6636.00    0.64365   0.63309    0.038
 6637.00    0.64924   0.63277    0.038
 6638.00    0.65519   0.63129    0.038
 6639.00    0.66126   0.62887    0.039
 6640.00    0.67472   0.62616    0.039
 6641.00    0.69046   0.62411    0.039
 6642.00    0.68416   0.62352    0.039
 6643.00    0.67216   0.62478    0.039
 6644.00    0.66629   0.62754    0.039
 6645.00    0.66171   0.63075    0.040
 6646.00    0.65479   0.63325    0.040
 6647.00    0.64747   0.63440    0.040
 6648.00    0.63856   0.63420    0.040
 6649.00    0.62946   0.63298    0.040
 6650.00    0.64582   0.63129    0.040
 6651.00    0.66440   0.62967    0.041
 6652.00    0.65872   0.62861    0.040
 6653.00    0.65179   0.62854    0.040
 6654.00    0.65501   0.62961    0.041
 6655.00    0.65836   0.63126    0.041
 6656.00    0.65894   0.63263    0.040
 6657.00    0.65922   0.63335    0.040
 6658.00    0.65322   0.63353    0.039
 6659.00    0.64834   0.63333    0.039
 6660.00    0.65696   0.63288    0.039
 6661.00    0.66478   0.63245    0.040
 6662.00    0.66592   0.63222    0.040
 6663.00    0.66472   0.63219    0.040
 6664.00    0.64905   0.63212    0.040
 6665.00    0.63740   0.63179    0.039
 6666.00    0.64524   0.63092    0.040
 6667.00    0.65462   0.62933    0.040
 6668.00    0.67005   0.62693    0.040
 6669.00    0.68237   0.62381    0.041
 6670.00    0.68444   0.62046    0.041
 6671.00    0.68135   0.61770    0.041
 6672.00    0.66396   0.61618    0.041
 6673.00    0.65463   0.61618    0.042
 6674.00    0.66449   0.61774    0.042
 6675.00    0.67025   0.62040    0.042
 6676.00    0.66760   0.62356    0.042
 6677.00    0.66372   0.62690    0.042
 6678.00    0.65766   0.63009    0.042
 6679.00    0.64925   0.63261    0.042
 6680.00    0.63717   0.63386    0.041
 6681.00    0.62760   0.63334    0.040
 6682.00    0.62145   0.63073    0.040
 6683.00    0.62194   0.62603    0.040
 6684.00    0.63042   0.61981    0.040
 6685.00    0.63723   0.61342    0.041
 6686.00    0.64225   0.60865    0.040
 6687.00    0.64748   0.60690    0.040
 6688.00    0.65291   0.60863    0.042
 6689.00    0.65927   0.61293    0.042
 6690.00    0.66641   0.61804    0.042
 6691.00    0.66109   0.62239    0.042
 6692.00    0.64668   0.62543    0.042
 6693.00    0.63722   0.62727    0.043
 6694.00    0.63091   0.62817    0.043
 6695.00    0.63760   0.62845    0.043
 6696.00    0.65158   0.62851    0.000
 6697.00    0.66131   0.62860    0.000
 6698.00    0.66897   0.62877    0.000
 6699.00    0.66751   0.62883    0.000
 6700.00    0.66220   0.62842    0.000
 6701.00    0.65775   0.62726    0.000
 6702.00    0.65360   0.62533    0.000
 6703.00    0.65662   0.62299    0.000
 6704.00    0.66182   0.62090    0.000
 6705.00    0.66314   0.61975    0.000
 6706.00    0.66348   0.61992    0.000
 6707.00    0.65345   0.62126    0.000
 6708.00    0.64128   0.62305    0.000
 6709.00    0.64209   0.62438    0.000
 6710.00    0.64501   0.62472    0.000
 6711.00    0.65235   0.62420    0.000
 6712.00    0.66022   0.62341    0.000
 6713.00    0.66456   0.62298    0.000
 6714.00    0.66860   0.62317    0.000
 6715.00    0.67237   0.62377    0.000
 6716.00    0.67613   0.62425    0.000
 6717.00    0.69291   0.62414    0.000
 6718.00    0.70830   0.62326    0.000
 6719.00    0.63480   0.62160    0.000
 6720.00    0.56654   0.61919    0.000
 6721.00    0.60040   0.61601    0.000
 6722.00    0.63356   0.61216    0.000
 6723.00    0.65885   0.60803    0.000
 6724.00    0.67855   0.60440    0.000
 6725.00    0.65371   0.60226    0.000
 6726.00    0.63134   0.60225    0.000
 6727.00    0.62375   0.60429    0.000
 6728.00    0.62346   0.60767    0.000
 6729.00    0.65775   0.61138    0.000
 6730.00    0.68789   0.61452    0.000
 6731.00    0.70196   0.61659    0.000
 6732.00    0.70621   0.61765    0.000
 6733.00    0.67887   0.61810    0.000
 6734.00    0.66049   0.61838    0.000
 6735.00    0.66655   0.61883    0.000
 6736.00    0.67397   0.61961    0.000
 6737.00    0.68455   0.62065    0.000
 6738.00    0.68421   0.62165    0.000
 6739.00    0.66178   0.62223    0.000
 6740.00    0.64520   0.62227    0.000
 6741.00    0.63891   0.62192    0.000
 6742.00    0.64132   0.62136    0.000
 6743.00    0.65713   0.62065    0.000
 6744.00    0.66174   0.61967    0.000
 6745.00    0.65120   0.61834    0.000
 6746.00    0.64156   0.61674    0.000
 6747.00    0.63299   0.61515    0.000
 6748.00    0.63053   0.61388    0.000
 6749.00    0.63446   0.61308    0.000
 6750.00    0.62715   0.61273    0.000
 6751.00    0.60940   0.61265    0.000
 6752.00    0.60527   0.61265    0.000
 6753.00    0.61224   0.61250    0.046
 6754.00    0.60994   0.61204    0.046
 6755.00    0.60099   0.61119    0.047
 6756.00    0.60836   0.61001    0.047
 6757.00    0.62602   0.60872    0.048
 6758.00    0.65638   0.60773    0.049
 6759.00    0.69374   0.60737    0.050
 6760.00    0.71859   0.60780    0.051
 6761.00    0.73745   0.60910    0.052
 6762.00    0.74761   0.61124    0.053
 6763.00    0.75416   0.61408    0.054
 6764.00    0.78814   0.61731    0.055
 6765.00    0.83182   0.62055    0.056
 6766.00    0.80927   0.62339    0.055
 6767.00    0.76696   0.62545    0.053
 6768.00    0.76371   0.62659    0.053
 6769.00    0.77015   0.62685    0.053
 6770.00    0.75039   0.62632    0.051
 6771.00    0.72537   0.62509    0.050
 6772.00    0.68736   0.62320    0.049
 6773.00    0.64730   0.62070    0.048
 6774.00    0.65394   0.61789    0.048
 6775.00    0.66602   0.61526    0.048
 6776.00    0.69295   0.61331    0.048
 6777.00    0.72105   0.61240    0.047
 6778.00    0.70623   0.61259    0.048
 6779.00    0.68954   0.61383    0.048
 6780.00    0.66525   0.61600    0.048
 6781.00    0.64173   0.61888    0.048
 6782.00    0.65786   0.62210    0.049
 6783.00    0.67498   0.62523    0.049
 6784.00    0.70998   0.62783    0.050
 6785.00    0.73901   0.62956    0.050
 6786.00    0.70281   0.63020    0.049
 6787.00    0.67142   0.62958    0.049
 6788.00    0.67703   0.62758    0.049
 6789.00    0.68152   0.62417    0.050
 6790.00    0.67938   0.61973    0.051
 6791.00    0.67759   0.61505    0.051
 6792.00    0.67738   0.61116    0.050
 6793.00    0.67396   0.60891    0.050
 6794.00    0.65843   0.60862    0.049
 6795.00    0.64851   0.60994    0.049
 6796.00    0.65632   0.61208    0.049
 6797.00    0.66697   0.61415    0.048
 6798.00    0.68521   0.61554    0.048
 6799.00    0.68944   0.61602    0.048
 6800.00    0.66147   0.61571    0.048
 6801.00    0.63488   0.61498    0.048
 6802.00    0.61105   0.61429    0.048
 6803.00    0.61898   0.61407    0.047
 6804.00    0.68192   0.61452    0.048
 6805.00    0.71362   0.61558    0.048
 6806.00    0.69791   0.61704    0.048
 6807.00    0.67507   0.61861    0.048
 6808.00    0.64271   0.61998    0.047
 6809.00    0.62879   0.62096    0.048
 6810.00    0.63653   0.62142    0.049
 6811.00    0.63685   0.62137    0.050
 6812.00    0.62948   0.62092    0.050
 6813.00    0.64327   0.62026    0.050
 6814.00    0.67636   0.61961    0.050
 6815.00    0.69639   0.61908    0.050
 6816.00    0.70590   0.61873    0.051
 6817.00    0.70487   0.61854    0.050
 6818.00    0.69638   0.61844    0.049
 6819.00    0.68906   0.61832    0.048
 6820.00    0.68247   0.61808    0.048
 6821.00    0.67341   0.61774    0.047
 6822.00    0.66301   0.61743    0.046
 6823.00    0.66689   0.61738    0.046
 6824.00    0.67749   0.61776    0.047
 6825.00    0.67351   0.61844    0.047
 6826.00    0.66359   0.61918    0.047
 6827.00    0.64896   0.61981    0.048
 6828.00    0.63271   0.62041    0.048
 6829.00    0.63667   0.62124    0.048
 6830.00    0.64654   0.62240    0.050
 6831.00    0.67999   0.62367    0.050
 6832.00    0.71916   0.62459    0.050
 6833.00    0.71080   0.62470    0.050
 6834.00    0.69313   0.62385    0.050
 6835.00    0.69473   0.62234    0.050
 6836.00    0.69927   0.62076    0.050
 6837.00    0.68645   0.61976    0.051
 6838.00    0.67168   0.61965    0.051
 6839.00    0.66833   0.62032    0.052
 6840.00    0.66583   0.62139    0.052
 6841.00    0.64525   0.62244    0.051
 6842.00    0.62394   0.62313    0.050
 6843.00    0.64793   0.62315    0.049
 6844.00    0.67189   0.62220    0.049
 6845.00    0.68251   0.62004    0.048
 6846.00    0.69118   0.61673    0.047
 6847.00    0.66675   0.61268    0.048
 6848.00    0.64834   0.60870    0.048
 6849.00    0.69294   0.60573    0.048
 6850.00    0.73116   0.60459    0.049
 6851.00    0.72183   0.60558    0.049
 6852.00    0.71109   0.60831    0.049
 6853.00    0.69233   0.61192    0.049
 6854.00    0.67270   0.61543    0.048
 6855.00    0.64911   0.61812    0.049
 6856.00    0.63409   0.61972    0.049
 6857.00    0.65074   0.62029    0.050
 6858.00    0.65724   0.62006    0.051
 6859.00    0.63234   0.61915    0.050
 6860.00    0.61480   0.61759    0.050
 6861.00    0.61665   0.61538    0.049
 6862.00    0.62664   0.61273    0.049
 6863.00    0.65504   0.61010    0.048
 6864.00    0.66736   0.60802    0.048
 6865.00    0.64822   0.60680    0.048
 6866.00    0.64142   0.60633    0.049
 6867.00    0.65565   0.60628    0.050
 6868.00    0.66816   0.60646    0.050
 6869.00    0.67808   0.60701    0.050
 6870.00    0.68708   0.60821    0.050
 6871.00    0.69489   0.61008    0.049
 6872.00    0.69041   0.61211    0.049
 6873.00    0.67172   0.61350    0.048
 6874.00    0.66322   0.61368    0.048
 6875.00    0.66511   0.61274    0.049
 6876.00    0.66818   0.61129    0.049
 6877.00    0.67230   0.61003    0.049
 6878.00    0.65917   0.60933    0.049
 6879.00    0.63233   0.60917    0.049
 6880.00    0.63266   0.60942    0.049
 6881.00    0.65193   0.61005    0.050
 6882.00    0.66440   0.61114    0.051
 6883.00    0.67271   0.61274    0.051
 6884.00    0.67954   0.61473    0.051
 6885.00    0.68559   0.61672    0.050
 6886.00    0.68286   0.61818    0.050
 6887.00    0.67608   0.61863    0.051
 6888.00    0.66940   0.61787    0.050
 6889.00    0.66277   0.61619    0.049
 6890.00    0.67118   0.61429    0.049
 6891.00    0.68472   0.61296    0.049
 6892.00    0.67554   0.61276    0.049
 6893.00    0.65986   0.61378    0.049
 6894.00    0.66698   0.61579    0.050
 6895.00    0.67952   0.61836    0.052
 6896.00    0.37520   0.62106    0.042
 6897.00    0.01048   0.62352    0.034
 6898.00    0.26622   0.62545    0.060
 6899.00    0.61365   0.62664    0.680
 6900.00    0.62582   0.62704   -1.000
 6901.00    0.60183   0.62676   -1.000
 6902.00    0.61409   0.62604   -1.000
 6903.00    0.62892   0.62520   -1.000
 6904.00    0.64411   0.62448   -1.000
 6905.00    0.65932   0.62403   -1.000
 6906.00    0.63022   0.62385   -1.000
 6907.00    0.60228   0.62391   -1.000
 6908.00    0.61959   0.62422   -1.000
 6909.00    0.63447   0.62481   -1.000
 6910.00    0.61103   0.62566   -1.000
 6911.00    0.59062   0.62669   -1.000
 6912.00    0.60045   0.62778   -1.000
 6913.00    0.60579   0.62885   -1.000
 6914.00    0.57890   0.62990   -1.000
 6915.00    0.55846   0.63085   -1.000
 6916.00    0.57357   0.63150   -1.000
 6917.00    0.58715   0.63151   -1.000
 6918.00    0.59403   0.63064   -1.000
 6919.00    0.60081   0.62884   -1.000
 6920.00    0.60728   0.62633   -1.000
 6921.00    0.60888   0.62359   -1.000
 6922.00    0.59568   0.62121   -1.000
 6923.00    0.58957   0.61970   -1.000
 6924.00    0.60179   0.61932   -1.000
 6925.00    0.61332   0.62005   -1.000
 6926.00    0.62330   0.62162   -1.000
 6927.00    0.63125   0.62355   -1.000
 6928.00    0.63529   0.62528   -1.000
 6929.00    0.62919   0.62622   -1.000
 6930.00    0.60603   0.62592   -1.000
 6931.00    0.59181   0.62437   -1.000
 6932.00    0.59073   0.62209   -1.000
 6933.00    0.59467   0.62001   -1.000
 6934.00    0.60513   0.61897   -1.000
 6935.00    0.60728   0.61932   -1.000
 6936.00    0.59996   0.62073   -1.000
 6937.00    0.60018   0.62243   -1.000
 6938.00    0.60800   0.62366   -1.000
 6939.00    0.60394   0.62406   -1.000
 6940.00    0.58934   0.62377   -1.000
 6941.00    0.59033   0.62328   -1.000
 6942.00    0.60349   0.62309   -1.000
 6943.00    0.61088   0.62346   -1.000
 6944.00    0.61428   0.62435   -1.000
 6945.00    0.60272   0.62552   -1.000
 6946.00    0.58212   0.62674   -1.000
 6947.00    0.56092   0.62777   -1.000
 6948.00    0.53940   0.62833   -1.000
 6949.00    0.53927   0.62809   -1.000
 6950.00    0.54889   0.62682   -1.000
 6951.00    0.53263   0.62466   -1.000
 6952.00    0.50621   0.62225   -1.000
 6953.00    0.54217   0.62046   -1.000
 6954.00    0.59900   0.61997   -1.000
 6955.00    0.62885   0.62082   -1.000
 6956.00    0.65113   0.62240   -1.000
 6957.00    0.62386   0.62376   -1.000
 6958.00    0.58512   0.62420   -1.000
 6959.00    0.57724   0.62359   -1.000
 6960.00    0.57510   0.62239   -1.000
 6961.00    0.58415   0.62133   -1.000
 6962.00    0.59481   0.62104   -1.000
 6963.00    0.57655   0.62179   -1.000
 6964.00    0.55530   0.62343   -1.000
 6965.00    0.58352   0.62551   -1.000
 6966.00    0.61504   0.62755   -1.000
 6967.00    0.62632   0.62928   -1.000
 6968.00    0.63693   0.63061   -1.000
 6969.00    0.61539   0.63163   -1.000
 6970.00    0.59511   0.63239   -1.000
 6971.00    0.61374   0.63291   -1.000
 6972.00    0.63140   0.63323   -1.000
 6973.00    0.63477   0.63343   -1.000
 6974.00    0.63523   0.63367   -1.000
 6975.00    0.60778   0.63406   -1.000
 6976.00    0.58072   0.63452   -1.000
 6977.00    0.55631   0.63482   -1.000
 6978.00    0.53935   0.63475   -1.000
 6979.00    0.56233   0.63422   -1.000
 6980.00    0.58366   0.63321   -1.000
 6981.00    0.59783   0.63152   -1.000
 6982.00    0.60883   0.62881   -1.000
 6983.00    0.60852   0.62475   -1.000
 6984.00    0.60164   0.61944   -1.000
 6985.00    0.57520   0.61370   -1.000
 6986.00    0.55727   0.60898   -1.000
 6987.00    0.56096   0.60678   -1.000
 6988.00    0.56689   0.60798   -1.000
 6989.00    0.57770   0.61231   -1.000
 6990.00    0.58783   0.61849   -1.000
 6991.00    0.59664   0.62483   -1.000
 6992.00    0.59850   0.62995   -1.000
 6993.00    0.58888   0.63313   -1.000
 6994.00    0.57743   0.63433   -1.000
 6995.00    0.56330   0.63400   -1.000
 6996.00    0.56225   0.63280   -1.000
 6997.00    0.57789   0.63148   -1.000
 6998.00    0.59110   0.63064   -1.000
 6999.00    0.60160   0.63056   -1.000
 7000.00    0.58160   0.63111   -1.000
 7001.00    0.53136   0.63188   -1.000
 7002.00    0.52456   0.63243   -1.000
 7003.00    0.55575   0.63246   -1.000
 7004.00    0.58115   0.63181   -1.000
 7005.00    0.60207   0.63047   -1.000
 7006.00    0.60473   0.62858   -1.000
 7007.00    0.59502   0.62651   -1.000
 7008.00    0.58221   0.62473   -1.000
 7009.00    0.56756   0.62362   -1.000
 7010.00    0.56486   0.62316   -1.000
 7011.00    0.56835   0.62305   -1.000
 7012.00    0.56779   0.62297   -1.000
 7013.00    0.56540   0.62290   -1.000
 7014.00    0.54211   0.62311   -1.000
 7015.00    0.51074   0.62384   -1.000
 7016.00    0.51500   0.62508   -1.000
 7017.00    0.53095   0.62653   -1.000
 7018.00    0.53804   0.62771   -1.000
 7019.00    0.54270   0.62821   -1.000
 7020.00    0.57256   0.62768   -1.000
 7021.00    0.60812   0.62591   -1.000
 7022.00    0.58654   0.62300   -1.000
 7023.00    0.55464   0.61959   -1.000
 7024.00    0.57825   0.61685   -1.000
 7025.00    0.60955   0.61602   -1.000
 7026.00    0.60129   0.61761   -1.000
 7027.00    0.58909   0.62100   -1.000
 7028.00    0.57379   0.62466   -1.000
 7029.00    0.55829   0.62703   -1.000
 7030.00    0.59230   0.62734   -1.000
 7031.00    0.62741   0.62592   -1.000
 7032.00    0.58439   0.62392   -1.000
 7033.00    0.54350   0.62257   -1.000
 7034.00    0.56112   0.62257   -1.000
 7035.00    0.57690   0.62392   -1.000
 7036.00    0.56685   0.62608   -1.000
 7037.00    0.55994   0.62837   -1.000
 7038.00    0.58205   0.63030   -1.000
 7039.00    0.59643   0.63161   -1.000
 7040.00    0.55877   0.63230   -1.000
 7041.00    0.53603   0.63244   -1.000
 7042.00    0.59124   0.63214   -1.000
 7043.00    0.63057   0.63144   -1.000
 7044.00    0.60301   0.63043   -1.000
 7045.00    0.58204   0.62941   -1.000
 7046.00    0.58399   0.62909   -1.000
 7047.00    0.58433   0.63024   -1.000
 7048.00    0.57997   0.63324   -1.000
 7049.00    0.58108   0.63764   -1.000
 7050.00    0.59584   0.64229   -2.000
 7051.00    0.61012   0.64597   -2.000
 7052.00    0.62337   0.64815   -2.000
 7053.00    0.62965   0.64911   -2.000
 7054.00    0.62293   0.64958   -2.000
 7055.00    0.61631   0.65006   -2.000
 7056.00    0.60985   0.65039   -2.000
 7057.00    0.61212   0.64982   -2.000
 7058.00    0.62688   0.64744   -2.000
 7059.00    0.63172   0.64278   -2.000
 7060.00    0.62410   0.63618   -2.000
 7061.00    0.61045   0.62873   -2.000
 7062.00    0.59011   0.62187   -2.000
 7063.00    0.59691   0.61674   -2.000
 7064.00    0.63025   0.61368   -2.000
 7065.00    0.63382   0.61215   -2.000
 7066.00    0.61170   0.61121   -2.000
 7067.00    0.60000   0.61008   -2.000
 7068.00    0.59622   0.60864   -2.000
 7069.00    0.60981   0.60724   -2.000
 7070.00    0.63501   0.60634   -2.000
 7071.00    0.64248   0.60600   -2.000
 7072.00    0.63958   0.60583   -2.000
 7073.00    0.64953   0.60529   -2.000
 7074.00    0.66604   0.60414   -2.000
 7075.00    0.66032   0.60272   -2.000
 7076.00    0.64478   0.60183   -2.000
 7077.00    0.63752   0.60230   -2.000
 7078.00    0.63341   0.60445   -2.000
 7079.00    0.66578   0.60793   -2.000
 7080.00    0.70989   0.61186   -2.000
 7081.00    0.70513   0.61536   -2.000
 7082.00    0.68720   0.61793   -2.000
 7083.00    0.64730   0.61952   -2.000
 7084.00    0.60255   0.62044   -2.000
 7085.00    0.60524   0.62106   -2.000
 7086.00    0.61628   0.62156   -2.000
 7087.00    0.64001   0.62179   -2.000
 7088.00    0.66545   0.62130   -2.000
 7089.00    0.59986   0.61949   -2.000
 7090.00    0.52563   0.61595   -2.000
 7091.00    0.53063   0.61076   -2.000
 7092.00    0.54027   0.60459   -2.000
 7093.00    0.54366   0.59841   -2.000
 7094.00    0.54706   0.59304   -2.000
 7095.00    0.57358   0.58882   -2.000
 7096.00    0.59804   0.58570   -2.000
 7097.00    0.57157   0.58348   -2.000
 7098.00    0.54771   0.58201   -2.000
 7099.00    0.55841   0.58126   -2.000
 7100.00    0.56725   0.58114   -2.000
 7101.00    0.55963   0.58147   -2.000
 7102.00    0.55247   0.58210   -2.000
 7103.00    0.54836   0.58298   -2.000
 7104.00    0.54729   0.58419   -2.000
 7105.00    0.56168   0.58581   -2.000
 7106.00    0.56878   0.58778   -2.000
 7107.00    0.54585   0.58984   -2.000
 7108.00    0.53335   0.59159   -2.000
 7109.00    0.55639   0.59275   -2.000
 7110.00    0.57563   0.59333   -2.000
 7111.00    0.58393   0.59362   -2.000
 7112.00    0.58494   0.59395   -2.000
 7113.00    0.56805   0.59440   -2.000
 7114.00    0.55279   0.59482   -2.000
 7115.00    0.54097   0.59487   -2.000
 7116.00    0.54129   0.59436   -2.000
 7117.00    0.56394   0.59330   -2.000
 7118.00    0.58056   0.59194   -2.000
 7119.00    0.58750   0.59075   -2.000
 7120.00    0.60221   0.59023   -2.000
 7121.00    0.62787   0.59071   -2.000
 7122.00    0.63691   0.59214   -2.000
 7123.00    0.62533   0.59417   -2.000
 7124.00    0.60619   0.59623   -2.000
 7125.00    0.57880   0.59784   -2.000
 7126.00    0.56185   0.59874   -2.000
 7127.00    0.55498   0.59885   -2.000
 7128.00    0.54720   0.59832   -2.000
 7129.00    0.53864   0.59731   -2.000
 7130.00    0.55200   0.59599   -2.000
 7131.00    0.58176   0.59441   -2.000
 7132.00    0.53401   0.59249   -2.000
 7133.00    0.43527   0.59010   -2.000
 7134.00    0.44218   0.58727   -2.000
 7135.00    0.50996   0.58417   -2.000
 7136.00    0.55166   0.58110   -2.000
 7137.00    0.58028   0.57832   -2.000
 7138.00    0.58975   0.57617   -2.000
 7139.00    0.59090   0.57503   -2.000
 7140.00    0.58941   0.57529   -2.000
 7141.00    0.58693   0.57703   -2.000
 7142.00    0.56220   0.57987   -2.000
 7143.00    0.53044   0.58308   -2.000
 7144.00    0.55393   0.58589   -2.000
 7145.00    0.59199   0.58783   -2.000
 7146.00    0.60213   0.58885   -2.000
 7147.00    0.60625   0.58930   -2.000
 7148.00    0.56343   0.58960   -2.000
 7149.00    0.51260   0.59006   -2.000
 7150.00    0.51697   0.59065   -2.000
 7151.00    0.52849   0.59107   -2.000
 7152.00    0.53312   0.59090   -2.000
 7153.00    0.53713   0.58985   -2.000
 7154.00    0.57000   0.58795   -2.000
 7155.00    0.60444   0.58558   -2.000
 7156.00    0.57383   0.58347   -2.000
 7157.00    0.54255   0.58246   -2.000
 7158.00    0.57461   0.58312   -2.000
 7159.00    0.60487   0.58542   -2.000
 7160.00    0.59403   0.58880   -2.000
 7161.00    0.51545   0.59242   -2.000
 7162.00   -0.41622   0.59556   -2.000
 7163.00   -1.13345   0.59787   -2.000
 7164.00   -0.02130   0.59935   -2.000
 7165.00    0.93343   0.60009   -2.000
 7166.00    0.89048   0.60018   -2.000
 7167.00    0.85441   0.59962   -2.000
 7168.00    0.85256   0.59845   -2.000
 7169.00    0.84695   0.59670   -2.000
 7170.00    0.82624   0.59444   -2.000
 7171.00    0.81555   0.59183   -2.000
 7172.00    0.83832   0.58931   -2.000
 7173.00    0.84637   0.58758   -2.000
 7174.00    0.81289   0.58736   -2.000
 7175.00    0.78827   0.58892   -2.000
 7176.00    0.78505   0.59189   -2.000
 7177.00    0.77895   0.59547   -2.000
 7178.00    0.76688   0.59890   -2.000
 7179.00    0.76682   0.60171   -2.000
 7180.00    0.78852   0.60371   -2.000
 7181.00    0.79884   0.60480   -2.000
 7182.00    0.79116   0.60497   -2.000
 7183.00    0.77336   0.60428   -2.000
 7184.00    0.74149   0.60297   -2.000
 7185.00    0.72171   0.60127   -2.000
 7186.00    0.71671   0.59933   -2.000
 7187.00    0.73118   0.59724   -2.000
 7188.00    0.76663   0.59527   -2.000
 7189.00    0.78924   0.59391   -2.000
 7190.00    0.79963   0.59364   -2.000
 7191.00    0.79620   0.59447   -2.000
 7192.00    0.78117   0.59565   -2.000
 7193.00    0.76811   0.59603   -2.000
 7194.00    0.75651   0.59482   -2.000
 7195.00    0.75995   0.59213   -2.000
 7196.00    0.77314   0.58898   -2.000
 7197.00    0.75991   0.58664   -2.000
 7198.00    0.73167   0.58593   -2.000
 7199.00    0.74314   0.58689   -2.000
 7200.00    0.77422   0.58892   -2.000
 7201.00    0.82765   0.59124   -2.000
 7202.00    0.89063   0.59326   -2.000
 7203.00    0.86034   0.59473   -2.000
 7204.00    0.79592   0.59566   -2.000
 7205.00    0.78504   0.59617   -2.000
 7206.00    0.79075   0.59645   -2.000
 7207.00    0.74987   0.59665   -2.000
 7208.00    0.69697   0.59689   -2.000
 7209.00    0.68605   0.59722   -2.000
 7210.00    0.68396   0.59762   -2.000
 7211.00    0.69306   0.59794   -2.000
 7212.00    0.70402   0.59776   -2.000
 7213.00    0.71642   0.59659   -2.000
 7214.00    0.72900   0.59429   -2.000
 7215.00    0.76040   0.59137   -2.000
 7216.00    0.79342   0.58895   -2.000
 7217.00    0.77652   0.58819   -2.000
 7218.00    0.75707   0.58948   -2.000
