###################################################################
## OUTPUT of StarlightChains_v04.for    [Cid@UFSC - 01/Apr/2007] ##
###################################################################

## Some input info
KUG0210-078._31_36.txt                   [arq_obs]
Base.CB07.vall.4m                        [arq_base]
Masks.EmLines.NEW.gm                     [arq_masks]
StCv04.C11.config                        [arq_config]
   66                                    [N_base]
    0                                    [N_YAV_components = # of components with extra extinction!]
    0                                    [i_FitPowerLaw (1/0 = Yes/No)]
-9.99                                    [alpha_PowerLaw]
CCM                                      [red_law_option]
 1.458241                                [q_norm = A(l_norm)/A(V)]

## (Re)Sampling Parameters
 3741.00                                 [l_ini (A)]
 7218.00                                 [l_fin (A)]
    1.00                                 [dl    (A)]     (OBS: dl_cushion =    50.00 A)

## Normalization info
 4020.00                                 [l_norm (A) - for base]
 4010.00                                 [llow_norm (A) - window for f_obs]
 4060.00                                 [lupp_norm (A) - window for f_obs]
8.688764E-17                             [fobs_norm (in input units)]

## S/N
 3691.00                                 [llow_SN (A) - window for S/N]
 7268.00                                 [lupp_SN (A) - window for S/N]
   7.652                                 [S/N in S/N window]
   7.439                                 [S/N in norm. window]
   0.132                                 [S/N_err in S/N window]
   0.128                                 [S/N_err in norm. window]
  1.0000                                 [fscale_chi2]

## etc...
    -2007461                             [idum_orig]
  2432                                   [NOl_eff]
  2414                                   [Nl_eff]
    18    NSIGMA                         [Ntot_cliped & clip_method]
  6694940                                [Nglobal_steps]
   7                                     [N_chains]
  16                                     [NEX0s_base = N_base in EX0s-fits]
 0   0   1       18   2.0   1.530E+04    [Clip-Bug, RC-Crash & Burn-In warning-flags, n_censored_weights, wei_nsig_threshold & wei_limit]
    51     50.823     50.195      0.628  [idt_all, wdt_TotTime, wdt_UsrTime & wdt_SysTime (sec)]

## Synthesis Results - Best model ##

 1.85985E-04                             [chi2/Nl_eff]
     4.49715                             [adev (%)]

   109.89700                             [sum-of-x (%)]
 8.15145E-17                             [Flux_tot (units of input spectrum!)]
 3.30466E-12                             [Mini_tot (???)]
 1.69849E-12                             [Mcor_tot (???)]

 -23.48                                  [v0_min  (km/s)]
 399.57                                  [vd_min  (km/s)]
-0.1178                                  [AV_min  (mag)]
 0.0000                                  [YAV_min (mag)]

# j     x_j(%)      Mini_j(%)     Mcor_j(%)     age_j(yr)     Z_j      (L/M)_j    YAV?  Mstars   component_j        a/Fe...       SSP_chi2r SSP_adev(%)   SSP_AV   SSP_x(%)
  1      0.0000     0.0000E+00    0.0000E+00    1.000000E+06  0.00400  1.094E-02    0   1.0000   age020_m42            0.0000     5.6133E-04     8.2127   3.3555    86.6629
  2      0.0000     0.0000E+00    0.0000E+00    3.160000E+06  0.00400  4.007E-02    0   0.9999   age045_m42            0.0000     3.4371E-04     6.6285   2.5565    95.1400
  3      0.0000     0.0000E+00    0.0000E+00    5.010000E+06  0.00400  2.539E-02    0   0.9488   age055_m42            0.0000     4.2908E-04     7.3555   2.9114    91.6424
  4      0.0000     0.0000E+00    0.0000E+00    6.610000E+06  0.00400  2.620E-02    0   0.9220   age061_m42            0.0000     3.4356E-04     6.7051   2.4834    95.3284
  5      0.0000     0.0000E+00    0.0000E+00    1.000000E+07  0.00400  1.322E-02    0   0.8862   age070_m42            0.0000     4.2382E-04     8.4938   2.2573    95.3840
  6      0.0000     0.0000E+00    0.0000E+00    1.445000E+07  0.00400  7.883E-03    0   0.8571   age078_m42            0.0000     4.6900E-04     8.6233   2.5963    92.5424
  7      0.0000     0.0000E+00    0.0000E+00    2.512000E+07  0.00400  5.251E-03    0   0.8174   age090_m42            0.0000     4.2697E-04     8.7793   2.1308    95.7958
  8      0.0000     0.0000E+00    0.0000E+00    4.000000E+07  0.00400  3.649E-03    0   0.7851   age104_m42            0.0000     3.8660E-04     8.3778   1.8869    97.2198
  9      0.0000     0.0000E+00    0.0000E+00    5.500000E+07  0.00400  3.098E-03    0   0.7629   age110_m42            0.0000     3.3661E-04     7.3303   2.0007    98.6425
 10      0.0000     0.0000E+00    0.0000E+00    1.015200E+08  0.00400  2.228E-03    0   0.7207   age116_m42            0.0000     3.1324E-04     6.7414   1.9933    99.8204
 11      0.0000     0.0000E+00    0.0000E+00    2.861200E+08  0.00400  1.093E-03    0   0.6648   age125_m42            0.0000     3.1234E-04     7.1218   1.4197   102.7767
 12      0.0000     0.0000E+00    0.0000E+00    5.088000E+08  0.00400  6.597E-04    0   0.6365   age130_m42            0.0000     2.9012E-04     6.2140   1.3671   105.2541
 13      0.0000     0.0000E+00    0.0000E+00    1.434000E+09  0.00400  2.132E-04    0   0.5798   age139_m42            0.0000     2.1541E-04     5.5264   0.3754   108.1478
 14      0.0000     0.0000E+00    0.0000E+00    4.250000E+09  0.00400  5.895E-05    0   0.5377   age158_m42            0.0000     2.0052E-04     4.4882  -0.0651   103.9093
 15      0.0000     0.0000E+00    0.0000E+00    7.500000E+09  0.00400  3.510E-05    0   0.5212   age171_m42            0.0000     2.1889E-04     4.1707  -0.2683   103.7028
 16      0.0000     0.0000E+00    0.0000E+00    1.300000E+10  0.00400  2.005E-05    0   0.5034   age193_m42            0.0000     2.4777E-04     4.0089  -0.4449   103.4950
 17      0.0000     0.0000E+00    0.0000E+00    1.800000E+10  0.00400  1.525E-05    0   0.4967   age213_m42            0.0000     2.4786E-04     4.1161  -0.4606   102.7878
 18      0.0000     0.0000E+00    0.0000E+00    1.000000E+06  0.00800  1.238E-02    0   1.0000   age020_m52            0.0000     5.6146E-04     8.2210   3.3518    86.8513
 19      0.0000     0.0000E+00    0.0000E+00    3.160000E+06  0.00800  3.074E-02    0   0.9966   age045_m52            0.0000     5.3878E-04     8.0454   3.2682    87.8655
 20      0.0000     0.0000E+00    0.0000E+00    5.010000E+06  0.00800  2.668E-02    0   0.9443   age055_m52            0.0000     4.6133E-04     7.6205   3.0051    90.4595
 21      0.0000     0.0000E+00    0.0000E+00    6.610000E+06  0.00800  2.136E-02    0   0.9177   age061_m52            0.0000     4.1831E-04     8.4270   1.7681    96.1343
 22      0.0000     0.0000E+00    0.0000E+00    1.000000E+07  0.00800  1.215E-02    0   0.8827   age070_m52            0.0000     4.8358E-04     9.2216   2.4597    94.3025
 23      0.0000     0.0000E+00    0.0000E+00    1.445000E+07  0.00800  8.717E-03    0   0.8552   age078_m52            0.0000     4.5275E-04     8.5944   2.5579    93.9848
 24      0.0000     0.0000E+00    0.0000E+00    2.512000E+07  0.00800  5.592E-03    0   0.8162   age090_m52            0.0000     4.2453E-04     8.8325   2.1915    97.0203
 25      0.0000     0.0000E+00    0.0000E+00    4.000000E+07  0.00800  3.896E-03    0   0.7841   age104_m52            0.0000     3.7327E-04     8.1696   2.0769    98.7208
 26      0.0000     0.0000E+00    0.0000E+00    1.015200E+08  0.00800  2.148E-03    0   0.7226   age116_m52            0.0000     3.1460E-04     7.1331   1.9764   100.0017
 27      0.0000     0.0000E+00    0.0000E+00    2.861200E+08  0.00800  9.925E-04    0   0.6683   age125_m52            0.0000     2.9400E-04     6.3111   1.4301   106.3185
 28      0.0000     0.0000E+00    0.0000E+00    9.047900E+08  0.00800  3.141E-04    0   0.6138   age135_m52            0.0000     2.4904E-04     5.2098   0.5677   113.1367
 29      0.0000     0.0000E+00    0.0000E+00    1.434000E+09  0.00800  1.719E-04    0   0.5853   age139_m52            0.0000     1.9213E-04     4.7803  -0.0000   110.0808
 30      0.0000     0.0000E+00    0.0000E+00    2.500000E+09  0.00800  7.872E-05    0   0.5600   age150_m52            0.0000     2.0307E-04     3.9637  -0.2842   107.9326
 31      0.0000     0.0000E+00    0.0000E+00    4.250000E+09  0.00800  4.336E-05    0   0.5426   age158_m52            0.0000     2.2123E-04     3.9507  -0.2937   106.7009
 32      0.0000     0.0000E+00    0.0000E+00    6.250000E+09  0.00800  3.159E-05    0   0.5319   age166_m52            0.0000     2.5311E-04     3.9658  -0.5291   107.8541
 33      0.0000     0.0000E+00    0.0000E+00    1.300000E+10  0.00800  1.361E-05    0   0.5073   age193_m52            0.0000     3.2547E-04     4.6098  -1.0000   107.8066
 34      0.0000     0.0000E+00    0.0000E+00    1.800000E+10  0.00800  9.886E-06    0   0.4990   age213_m52            0.0000     4.2866E-04     6.2109  -1.0000   105.3629
 35      0.0000     0.0000E+00    0.0000E+00    1.000000E+06  0.02000  1.544E-02    0   1.0000   age020_m62            0.0000     5.6872E-04     8.2366   3.3482    87.0295
 36      0.0000     0.0000E+00    0.0000E+00    3.160000E+06  0.02000  3.762E-02    0   0.9858   age045_m62            0.0000     5.6589E-04     8.1547   3.2838    87.9120
 37      0.0000     0.0000E+00    0.0000E+00    5.010000E+06  0.02000  3.296E-02    0   0.9342   age055_m62            0.0000     3.8579E-04     6.8711   2.8485    93.5790
 38      0.0000     0.0000E+00    0.0000E+00    8.710000E+06  0.02000  1.154E-02    0   0.8861   age067_m62            0.0000     8.3062E-04    13.7020   2.0199    92.7543
 39      0.0000     0.0000E+00    0.0000E+00    1.445000E+07  0.02000  7.663E-03    0   0.8472   age078_m62            0.0000     5.5281E-04    10.3702   2.1331    95.3425
 40      0.0000     0.0000E+00    0.0000E+00    2.512000E+07  0.02000  4.532E-03    0   0.8099   age090_m62            0.0000     5.4803E-04    10.5037   2.1226    95.1428
 41      0.0000     0.0000E+00    0.0000E+00    5.500000E+07  0.02000  2.733E-03    0   0.7595   age110_m62            0.0000     3.8312E-04     8.2384   2.0673    97.7461
 42      0.0000     0.0000E+00    0.0000E+00    1.609000E+08  0.02000  1.369E-03    0   0.6985   age120_m62            0.0000     3.1678E-04     6.8578   1.8302   103.2683
 43      0.0000     0.0000E+00    0.0000E+00    2.861200E+08  0.02000  9.013E-04    0   0.6714   age125_m62            0.0000     3.2817E-04     6.3524   1.5320   108.0965
 44      0.0000     0.0000E+00    0.0000E+00    5.088000E+08  0.02000  5.028E-04    0   0.6449   age130_m62            0.0000     3.1104E-04     5.1498   1.0888   113.4786
 45      0.0000     0.0000E+00    0.0000E+00    9.047900E+08  0.02000  2.428E-04    0   0.6179   age135_m62            0.0000     2.1970E-04     4.4074   0.4970   112.8918
 46      0.0000     0.0000E+00    0.0000E+00    1.434000E+09  0.02000  1.263E-04    0   0.5908   age139_m62            0.0000     2.1016E-04     4.1108   0.0620   110.8352
 47      0.0000     0.0000E+00    0.0000E+00    2.500000E+09  0.02000  5.985E-05    0   0.5673   age150_m62            0.0000     2.4126E-04     3.9706  -0.3323   110.3146
 48      0.2231     1.5307E-01    1.6284E-01    4.250000E+09  0.02000  3.271E-05    0   0.5468   age158_m62            0.0000     2.9993E-04     4.9016  -0.6886   111.2012
 49      5.8249     9.6133E+00    9.6644E+00    1.000000E+10  0.02000  1.360E-05    0   0.5167   age181_m62            0.0000     4.4614E-04     5.7809  -1.0000   110.8190
 50     13.4449     4.2360E+01    4.1316E+01    1.800000E+10  0.02000  7.124E-06    0   0.5013   age213_m62            0.0000     7.1130E-04     9.0234  -1.0000   105.4192
 51      0.0000     0.0000E+00    0.0000E+00    1.000000E+06  0.05000  2.592E-02    0   0.9998   age020_m72            0.0000     5.9389E-04     8.4593   3.3482    86.8087
 52      0.0000     0.0000E+00    0.0000E+00    3.160000E+06  0.05000  4.845E-02    0   0.9577   age045_m72            0.0000     4.8314E-04     7.5520   3.1409    89.9568
 53      0.0000     0.0000E+00    0.0000E+00    5.010000E+06  0.05000  3.072E-02    0   0.9147   age055_m72            0.0000     5.5619E-04     9.2526   2.7028    92.1812
 54      0.0000     0.0000E+00    0.0000E+00    6.610000E+06  0.05000  1.455E-02    0   0.8877   age061_m72            0.0000     1.0574E-03    15.7592   2.0806    92.1634
 55      0.0000     0.0000E+00    0.0000E+00    1.000000E+07  0.05000  9.074E-03    0   0.8524   age070_m72            0.0000     5.8346E-04     9.2526   2.8708    92.0095
 56      0.0000     0.0000E+00    0.0000E+00    2.512000E+07  0.05000  4.250E-03    0   0.7902   age090_m72            0.0000     4.7084E-04     8.8349   2.5492    94.8199
 57     28.4777     2.0706E-01    3.0690E-01    4.000000E+07  0.05000  3.087E-03    0   0.7618   age104_m72            0.0000     4.5273E-04     8.9761   2.3135    96.7002
 58      0.0000     0.0000E+00    0.0000E+00    1.015200E+08  0.05000  1.700E-03    0   0.7096   age116_m72            0.0000     3.4263E-04     7.4604   1.9919   102.0513
 59      0.0000     0.0000E+00    0.0000E+00    2.861200E+08  0.05000  7.384E-04    0   0.6633   age125_m72            0.0000     3.2037E-04     5.6707   1.3621   111.0238
 60      0.0000     0.0000E+00    0.0000E+00    5.088000E+08  0.05000  3.819E-04    0   0.6372   age130_m72            0.0000     2.4660E-04     4.5943   0.8303   114.3672
 61     44.8718     6.0093E+00    7.1437E+00    9.047900E+08  0.05000  1.676E-04    0   0.6110   age135_m72            0.0000     2.2487E-04     4.2058   0.1069   113.2628
 62      0.0000     0.0000E+00    0.0000E+00    1.434000E+09  0.05000  8.837E-05    0   0.5874   age139_m72            0.0000     2.5966E-04     4.2319  -0.3516   112.6416
 63      0.0000     0.0000E+00    0.0000E+00    2.500000E+09  0.05000  4.233E-05    0   0.5598   age150_m72            0.0000     3.2704E-04     5.3570  -0.7125   113.0343
 64      9.0945     1.4225E+01    1.4527E+01    6.250000E+09  0.05000  1.435E-05    0   0.5249   age166_m72            0.0000     5.0195E-04     6.7196  -1.0000   108.3266
 65      7.9601     2.7432E+01    2.6879E+01    1.300000E+10  0.05000  6.513E-06    0   0.5036   age193_m72            0.0000     9.7570E-04    12.5732  -1.0000   102.6042
 66      0.0000     0.0000E+00    0.0000E+00    1.800000E+10  0.05000  4.527E-06    0   0.4945   age213_m72            0.0000     1.3701E-03    16.0409  -1.0000    98.0499


## Synthesis Results - Average & Chains ##

# j      x_j: min, <> & last-chain-values for 1 ...  7 chains
  1      0.0000      1.7312      1.1277      1.5610      1.5294      1.6639      1.2739      1.5921      1.6586
  2      0.0000      0.3125      0.0000      0.0466      0.0344      0.0272      0.0000      0.2279      0.0930
  3      0.0000      0.2798      0.0000      0.0170      0.0309      0.0000      0.2681      0.0479      0.0302
  4      0.0000      0.3345      0.0011      0.0000      0.0000      0.0495      0.0000      0.2251      0.0373
  5      0.0000      0.4083      0.0000      0.0329      0.0050      0.0337      0.1612      0.0705      0.0913
  6      0.0000      0.3658      0.0010      0.0191      0.0000      0.1415      0.0000      0.0936      0.0000
  7      0.0000      0.3223      0.0004      0.0896      0.0000      0.0806      0.4375      0.0244      0.0000
  8      0.0000      0.4348      0.0000      0.2417      0.0024      0.1457      0.2338      0.0000      0.0000
  9      0.0000      0.4178      0.0006      0.0000      0.0000      0.3239      0.2004      0.3109      0.0677
 10      0.0000      0.3171      0.0002      0.0678      0.0718      0.0000      0.0549      0.1788      0.0000
 11      0.0000      0.3311      0.0441      0.2234      0.0544      0.0000      0.0000      0.0397      0.0208
 12      0.0000      0.3517      0.0010      0.0000      0.0000      0.1466      0.1901      0.0204      0.0000
 13      0.0000      0.3754      0.0892      0.0968      0.0667      0.0000      0.1001      0.0000      0.1042
 14      0.0000      0.3610      0.0000      0.0105      0.1275      0.0000      0.1742      0.0317      0.0925
 15      0.0000      0.3898      0.0000      0.2167      0.0000      0.0647      0.0649      0.0476      0.0767
 16      0.0000      0.3763      0.0011      0.0660      0.0212      0.0000      0.4011      0.1657      0.1977
 17      0.0000      0.3035      0.0000      0.0000      0.1029      0.0942      0.2912      0.0146      0.0635
 18      0.0000      5.0316      5.2707      5.7619      5.9813      5.8091      5.4582      5.4836      5.7898
 19      0.0000      1.2819      0.9515      1.5262      1.1975      1.3491      1.1392      1.5854      1.2903
 20      0.0000      0.3746      0.0000      0.1864      0.0000      0.0137      0.0000      0.0126      0.0000
 21      0.0000      0.2614      0.0011      0.3358      0.0000      0.0713      0.0607      0.0734      0.0707
 22      0.0000      0.3062      0.0164      0.0020      0.0000      0.0829      0.0000      0.0000      0.0214
 23      0.0000      0.3219      0.0005      0.0000      0.0475      0.0000      0.1530      0.4510      0.0305
 24      0.0000      0.5339      0.0014      0.0303      0.1558      0.0000      0.4013      0.0868      0.0218
 25      0.0000      0.3151      0.0006      0.0621      0.0732      0.0418      0.2613      0.0630      0.1530
 26      0.0000      0.2581      0.0000      0.1608      0.0276      0.0964      0.0000      0.0084      0.0757
 27      0.0000      0.3018      0.0000      0.0181      0.0423      0.0000      0.5403      0.2655      0.0000
 28      0.0000      0.2531      0.0365      0.1830      0.0000      0.0149      0.4814      0.0379      0.2587
 29      0.0000      0.3173      0.0004      0.0350      0.0742      0.0000      0.0730      0.0978      0.2285
 30      0.0000      0.2553      0.0000      0.0000      0.0000      0.0462      0.2191      0.1170      0.1579
 31      0.0000      0.3499      0.2105      0.0000      0.0000      0.1311      0.7024      0.0521      0.1792
 32      0.0000      0.3768      0.1344      0.1356      0.0418      0.0155      0.5315      0.0393      0.0241
 33      0.0000      0.3902      0.0566      0.1075      0.1340      0.0000      0.2102      0.0831      0.0000
 34      0.0000      0.3478      0.0909      0.0096      0.0225      0.1686      0.1592      0.1306      0.0152
 35      0.0000      1.2691      0.4379      1.0760      1.2610      1.1299      1.0752      0.7834      1.3804
 36      0.0000      0.4388      0.0729      0.3235      0.4288      0.3169      0.0101      0.4292      0.1734
 37      0.0000      0.3753      0.0000      0.0000      0.0405      0.0728      0.0061      0.0237      0.0000
 38      0.0000      0.2685      0.0000      0.0034      0.0302      0.1343      0.0775      0.1478      0.0000
 39      0.0000      0.2931      0.0000      0.0000      0.0002      0.0276      0.4340      0.0000      0.0000
 40      0.0000      0.3499      0.0000      0.0006      0.0000      0.0000      0.0278      0.0757      0.0000
 41      0.0000      0.2883      0.0000      0.0000      0.2240      0.0918      0.0528      0.0762      0.0373
 42      0.0000      0.2455      0.0348      0.0000      0.0037      0.1849      0.1977      0.0926      0.0718
 43      0.0000      0.2662      0.0000      0.0718      0.0544      0.1466      0.1143      0.1510      0.0984
 44      0.0000      0.3155      0.0857      0.0631      0.0009      0.0629      0.1621      0.1066      0.1424
 45      0.0000      0.2414      0.0000      0.0058      0.0482      0.0617      0.2189      0.2034      0.0000
 46      0.0000      0.3506      0.0019      0.0062      0.2603      0.0000      0.1081      0.0241      0.0854
 47      0.0000     37.8436     54.9070     42.1452     39.8760     42.1446     41.9314     42.2975     42.3385
 48      0.2231      2.1567      1.5258      2.6522      2.7340      2.5437      2.2774      2.5028      2.7556
 49      5.8249      1.9755      1.0188      2.1754      2.6351      1.9113      1.8525      2.1982      2.2325
 50     13.4449      1.7541      1.0278      2.0779      2.0768      2.1314      1.8287      2.1582      2.2237
 51      0.0000      2.6043      1.5402      2.7688      3.2930      2.9314      2.6920      2.7525      2.7982
 52      0.0000      1.7890      1.8158      1.6258      1.8764      1.7952      1.7480      1.9762      1.6142
 53      0.0000      0.7128      0.7265      0.6150      0.6498      0.7684      0.4798      0.5597      0.6526
 54      0.0000      0.3218      0.0001      0.0000      0.0000      0.0170      0.2374      0.0000      0.0000
 55      0.0000      0.4121      0.0668      0.0680      0.1561      0.0132      0.0000      0.0517      0.0000
 56      0.0000      0.4235      0.1122      0.1050      0.0000      0.1134      0.1133      0.0000      0.0397
 57     28.4777      0.7723      1.9298      0.5120      0.5312      0.3864      0.5578      0.5084      0.4243
 58      0.0000      0.3316      0.0000      0.0334      0.0519      0.1535      0.4749      0.0998      0.1198
 59      0.0000      0.5163      0.0013      0.1037      0.0696      0.0340      0.6173      0.0698      0.0354
 60      0.0000      0.2101      0.0000      0.0482      0.0727      0.1306      0.1253      0.0000      0.0547
 61     44.8718     22.5315     24.8638     27.2589     28.4138     27.4849     25.1725     27.2377     27.4402
 62      0.0000      7.2488      7.9747      8.3291      8.2700      8.4488      7.8728      8.3683      8.2537
 63      0.0000      6.1676      6.0504      7.3897      7.9828      7.2400      7.0924      6.7171      7.2426
 64      9.0945      1.2795      0.7395      1.6304      1.5324      1.3807      0.8242      1.2257      1.3327
 65      7.9601      1.1181      0.7284      1.3919      1.3588      1.2863      1.2224      1.1640      1.2896
 66      0.0000      0.8797      0.7303      0.7401      0.7531      0.7146      0.7541      0.8584      0.8104

# j      m_j: min, <> & last-chain-values for 1 ...  7 chains
  1  0.0000E+00  1.4168E-02  9.7509E-03  1.2016E-02  1.1722E-02  1.3092E-02  1.0191E-02  1.2429E-02  1.2704E-02
  2  0.0000E+00  6.9806E-04  0.0000E+00  9.7851E-05  7.1888E-05  5.8445E-05  0.0000E+00  4.8569E-04  1.9451E-04
  3  0.0000E+00  9.3595E-04  0.0000E+00  5.3538E-05  9.6818E-05  0.0000E+00  8.7696E-04  1.5284E-04  9.4587E-05
  4  0.0000E+00  1.0538E-03  3.7127E-06  0.0000E+00  0.0000E+00  1.4988E-04  0.0000E+00  6.7665E-04  1.1012E-04
  5  0.0000E+00  2.4503E-03  0.0000E+00  1.8553E-04  2.7905E-05  1.9428E-04  9.4547E-04  4.0341E-04  5.1293E-04
  6  0.0000E+00  3.5611E-03  9.7877E-06  1.7460E-04  0.0000E+00  1.3239E-03  0.0000E+00  8.6885E-04  0.0000E+00
  7  0.0000E+00  4.4916E-03  5.9760E-06  1.1749E-03  0.0000E+00  1.0802E-03  5.9598E-03  3.2459E-04  0.0000E+00
  8  0.0000E+00  8.3751E-03  0.0000E+00  4.3792E-03  4.3199E-05  2.6986E-03  4.4017E-03  0.0000E+00  0.0000E+00
  9  0.0000E+00  9.2113E-03  1.3825E-05  0.0000E+00  0.0000E+00  6.8669E-03  4.3196E-03  6.5385E-03  1.3963E-03
 10  0.0000E+00  9.1835E-03  5.8100E-06  1.8462E-03  1.9474E-03  0.0000E+00  1.5538E-03  4.9387E-03  0.0000E+00
 11  0.0000E+00  1.8032E-02  2.5370E-03  1.1441E-02  2.7727E-03  0.0000E+00  0.0000E+00  2.0617E-03  1.0582E-03
 12  0.0000E+00  3.0378E-02  8.9602E-05  0.0000E+00  0.0000E+00  1.2178E-02  1.6056E-02  1.6793E-03  0.0000E+00
 13  0.0000E+00  9.1394E-02  2.2945E-02  2.2168E-02  1.5210E-02  0.0000E+00  2.3832E-02  0.0000E+00  2.3738E-02
 14  0.0000E+00  2.9483E-01  0.0000E+00  8.0760E-03  9.7539E-02  0.0000E+00  1.3905E-01  2.4678E-02  7.0681E-02
 15  0.0000E+00  5.1817E-01  0.0000E+00  2.7094E-01  0.0000E+00  8.2677E-02  8.4363E-02  6.0302E-02  9.5388E-02
 16  0.0000E+00  8.4591E-01  2.7002E-03  1.3963E-01  4.4599E-02  0.0000E+00  8.8140E-01  3.5536E-01  4.1594E-01
 17  0.0000E+00  8.8496E-01  0.0000E+00  0.0000E+00  2.8092E-01  2.6418E-01  8.3015E-01  4.0611E-02  1.7341E-01
 18  0.0000E+00  3.6387E-02  4.0274E-02  3.9194E-02  4.0510E-02  4.0392E-02  3.8586E-02  3.7828E-02  3.9186E-02
 19  0.0000E+00  3.7208E-03  2.9181E-03  4.1669E-03  3.2554E-03  3.7650E-03  3.2322E-03  4.3895E-03  3.5050E-03
 20  0.0000E+00  1.1871E-03  0.0000E+00  5.5548E-04  0.0000E+00  4.1807E-05  0.0000E+00  3.8215E-05  0.0000E+00
 21  0.0000E+00  1.0053E-03  4.4855E-06  1.2149E-03  0.0000E+00  2.6383E-04  2.2830E-04  2.6941E-04  2.5439E-04
 22  0.0000E+00  1.9917E-03  1.1305E-04  1.2441E-05  0.0000E+00  5.1842E-04  0.0000E+00  0.0000E+00  1.3042E-04
 23  0.0000E+00  2.8278E-03  4.6805E-06  0.0000E+00  3.9059E-04  0.0000E+00  1.3136E-03  3.7789E-03  2.5036E-04
 24  0.0000E+00  6.9769E-03  1.8929E-05  3.7279E-04  1.9071E-03  0.0000E+00  5.1266E-03  1.0821E-03  2.6645E-04
 25  0.0000E+00  5.6776E-03  1.1546E-05  1.0520E-03  1.2354E-03  7.2351E-04  4.6019E-03  1.0832E-03  2.5799E-03
 26  0.0000E+00  7.7732E-03  0.0000E+00  4.5557E-03  7.7862E-04  2.7929E-03  0.0000E+00  2.4187E-04  2.1330E-03
 27  0.0000E+00  1.8194E-02  0.0000E+00  1.0258E-03  2.3909E-03  0.0000E+00  3.1840E-02  1.5270E-02  0.0000E+00
 28  0.0000E+00  4.4273E-02  6.7513E-03  3.0123E-02  0.0000E+00  2.4981E-03  8.2330E-02  6.3320E-03  4.2355E-02
 29  0.0000E+00  9.6736E-02  1.2284E-04  1.0035E-02  2.1184E-02  0.0000E+00  2.1747E-02  2.8440E-02  6.5191E-02
 30  0.0000E+00  1.6258E-01  0.0000E+00  0.0000E+00  0.0000E+00  2.8270E-02  1.3641E-01  7.1073E-02  9.4146E-02
 31  0.0000E+00  3.9202E-01  2.4915E-01  0.0000E+00  0.0000E+00  1.4122E-01  7.6922E-01  5.5716E-02  1.8789E-01
 32  0.0000E+00  5.6796E-01  2.1414E-01  1.9228E-01  5.9032E-02  2.2439E-02  7.8315E-01  5.6527E-02  3.4030E-02
 33  0.0000E+00  1.3021E+00  1.9943E-01  3.3755E-01  4.1875E-01  0.0000E+00  6.8584E-01  2.6454E-01  0.0000E+00
 34  0.0000E+00  1.5716E+00  4.3410E-01  4.0654E-02  9.5349E-02  7.3236E-01  7.0340E-01  5.6309E-01  6.4275E-02
 35  0.0000E+00  7.3587E-03  2.6830E-03  5.8686E-03  6.8480E-03  6.2996E-03  6.0947E-03  4.3334E-03  7.4912E-03
 36  0.0000E+00  1.0295E-03  1.8061E-04  7.1381E-04  9.4210E-04  7.1488E-04  2.3215E-05  9.6041E-04  3.8071E-04
 37  0.0000E+00  9.5225E-04  0.0000E+00  0.0000E+00  9.6186E-05  1.7761E-04  1.5134E-05  5.7429E-05  0.0000E+00
 38  0.0000E+00  1.8459E-03  0.0000E+00  2.1864E-05  1.9419E-04  8.8796E-04  5.2095E-04  9.6925E-04  0.0000E+00
 39  0.0000E+00  2.9013E-03  0.0000E+00  0.0000E+00  2.0353E-06  2.6289E-04  4.1992E-03  0.0000E+00  0.0000E+00
 40  0.0000E+00  5.5986E-03  0.0000E+00  8.4946E-06  0.0000E+00  0.0000E+00  4.3555E-04  1.1546E-03  0.0000E+00
 41  0.0000E+00  7.1734E-03  0.0000E+00  0.0000E+00  5.2184E-03  2.1950E-03  1.2831E-03  1.8080E-03  8.6756E-04
 42  0.0000E+00  1.1216E-02  1.6799E-03  0.0000E+00  1.5626E-04  8.1197E-03  8.8290E-03  4.0357E-03  3.0686E-03
 43  0.0000E+00  1.7753E-02  0.0000E+00  4.5047E-03  3.3978E-03  9.4011E-03  7.4536E-03  9.6048E-03  6.1410E-03
 44  0.0000E+00  3.6231E-02  1.0403E-02  6.8162E-03  9.4629E-05  6.9394E-03  1.8196E-02  1.1674E-02  1.5299E-02
 45  0.0000E+00  5.5009E-02  0.0000E+00  1.2501E-03  1.0295E-02  1.3524E-02  4.8749E-02  4.4218E-02  0.0000E+00
 46  0.0000E+00  1.4681E-01  8.5040E-04  2.4280E-03  1.0210E-01  0.0000E+00  4.4261E-02  9.6330E-03  3.3485E-02
 47  0.0000E+00  3.2115E+01  4.9233E+01  3.3641E+01  3.1692E+01  3.4388E+01  3.4784E+01  3.4240E+01  3.3626E+01
 48  1.6284E-01  3.2277E+00  2.4127E+00  3.7337E+00  3.8321E+00  3.6604E+00  3.3318E+00  3.5732E+00  3.8597E+00
 49  9.6644E+00  6.7197E+00  3.6617E+00  6.9601E+00  8.3943E+00  6.2508E+00  6.1595E+00  7.1325E+00  7.1070E+00
 50  4.1316E+01  1.1051E+01  6.8415E+00  1.2313E+01  1.2254E+01  1.2911E+01  1.1262E+01  1.2970E+01  1.3111E+01
 51  0.0000E+00  8.9937E-03  5.6200E-03  8.9939E-03  1.0650E-02  9.7336E-03  9.0877E-03  9.0673E-03  9.0436E-03
 52  0.0000E+00  3.1659E-03  3.3953E-03  2.7063E-03  3.1100E-03  3.0547E-03  3.0239E-03  3.3361E-03  2.6734E-03
 53  0.0000E+00  1.9001E-03  2.0464E-03  1.5421E-03  1.6222E-03  1.9694E-03  1.2502E-03  1.4232E-03  1.6281E-03
 54  0.0000E+00  1.7575E-03  8.0843E-07  0.0000E+00  0.0000E+00  8.9254E-05  1.2674E-03  0.0000E+00  0.0000E+00
 55  0.0000E+00  3.4655E-03  5.9324E-04  5.3788E-04  1.2299E-03  1.0666E-04  0.0000E+00  4.1452E-04  0.0000E+00
 56  0.0000E+00  7.0502E-03  1.9743E-03  1.6433E-03  0.0000E+00  1.8156E-03  1.8435E-03  0.0000E+00  6.1890E-04
 57  3.0690E-01  1.7063E-02  4.5050E-02  1.0640E-02  1.0991E-02  8.2074E-03  1.2047E-02  1.0714E-02  8.7727E-03
 58  0.0000E+00  1.2391E-02  0.0000E+00  1.1750E-03  1.8152E-03  5.5146E-03  1.7347E-02  3.5594E-03  4.1890E-03
 59  0.0000E+00  4.1522E-02  1.1190E-04  7.8433E-03  5.2415E-03  2.6258E-03  4.8526E-02  5.3567E-03  2.6636E-03
 60  0.0000E+00  3.1386E-02  2.6806E-06  6.7748E-03  1.0173E-02  1.8765E-02  1.8303E-02  0.0000E+00  7.6494E-03
 61  7.1437E+00  7.3540E+00  8.5746E+00  8.3685E+00  8.6854E+00  8.6253E+00  8.0314E+00  8.4802E+00  8.3819E+00
 62  0.0000E+00  4.3138E+00  5.0144E+00  4.6623E+00  4.6092E+00  4.8343E+00  4.5799E+00  4.7505E+00  4.5969E+00
 63  0.0000E+00  7.3025E+00  7.5691E+00  8.2297E+00  8.8518E+00  8.2420E+00  8.2087E+00  7.5865E+00  8.0254E+00
 64  1.4527E+01  4.1903E+00  2.5589E+00  5.0223E+00  4.6998E+00  4.3475E+00  2.6383E+00  3.8289E+00  4.0845E+00
 65  2.6879E+01  7.7400E+00  5.3281E+00  9.0633E+00  8.8094E+00  8.5615E+00  8.2722E+00  7.6866E+00  8.3553E+00
 66  0.0000E+00  8.6027E+00  7.5467E+00  6.8076E+00  6.8979E+00  6.7198E+00  7.2090E+00  8.0079E+00  7.4173E+00

# AV, chi2 & Mass for <> & i_chain = 1 ...  7 solutions
AV      -0.1178     -0.1297     -0.1663     -0.1446     -0.1393     -0.1281     -0.1163     -0.1268     -0.1509
chi2 1.8598E-04  3.0496E-04  2.4911E-04  2.5668E-04  2.5963E-04  2.5899E-04  2.5887E-04  2.5902E-04  2.5599E-04
Mass 1.6985E-12  8.1533E-13  7.3464E-13  8.4964E-13  8.5941E-13  8.4986E-13  8.4917E-13  8.5812E-13  8.4670E-13
 -23.48                                  [v0_min (km/s) before EX0s...]
 399.57                                  [vd_min (km/s) before EX0s...]


## Synthetic spectrum (Best Model) ##l_obs f_obs f_syn wei
 3478    [Nl_obs]
 3741.00    0.59660   0.56468    0.000
 3742.00    0.63344   0.56470    0.000
 3743.00    0.65111   0.56271    0.000
 3744.00    0.63282   0.55898    0.000
 3745.00    0.59357   0.55483    0.532
 3746.00    0.59492   0.55094    0.461
 3747.00    0.61689   0.54889    0.378
 3748.00    0.60560   0.54911    0.429
 3749.00    0.57969   0.55255    0.602
 3750.00    0.59253   0.55897    0.507
 3751.00    0.61999   0.56821    0.377
 3752.00    0.65734   0.57943    0.334
 3753.00    0.69786   0.59167    0.310
 3754.00    0.68356   0.60398    0.306
 3755.00    0.65457   0.61527    0.308
 3756.00    0.66109   0.62499    0.297
 3757.00    0.67539   0.63253    0.284
 3758.00    0.67019   0.63781    0.338
 3759.00    0.66159   0.64082    0.442
 3760.00    0.61364   0.64178    0.675
 3761.00    0.56047   0.64110    1.456
 3762.00    0.56159   0.63901    0.615
 3763.00    0.56782   0.63625    0.366
 3764.00    0.58518   0.63296    0.328
 3765.00    0.60319   0.63015    0.300
 3766.00    0.60210   0.62790    0.357
 3767.00    0.60034   0.62738    0.442
 3768.00    0.57197   0.62854    0.418
 3769.00    0.54455   0.63244    0.397
 3770.00    0.54029   0.63880    0.373
 3771.00    0.53528   0.64821    0.352
 3772.00    0.52055   0.66004    0.332
 3773.00    0.50679   0.67432    0.313
 3774.00    0.50165   0.69006    0.286
 3775.00    0.49872   0.70683    0.272
 3776.00    0.51010   0.72349    0.321
 3777.00    0.52222   0.73933    0.371
 3778.00    0.53811   0.75332    0.339
 3779.00    0.55597   0.76478    0.318
 3780.00    0.58191   0.77298    0.321
 3781.00    0.60959   0.77754    0.320
 3782.00    0.64313   0.77815    0.311
 3783.00    0.67192   0.77491    0.304
 3784.00    0.68712   0.76786    0.304
 3785.00    0.68323   0.75761    0.306
 3786.00    0.63268   0.74433    0.315
 3787.00    0.60115   0.72905    0.341
 3788.00    0.60969   0.71191    0.424
 3789.00    0.63554   0.69406    0.459
 3790.00    0.69309   0.67571    0.367
 3791.00    0.72755   0.65793    0.326
 3792.00    0.72507   0.64119    0.323
 3793.00    0.70317   0.62641    0.326
 3794.00    0.65400   0.61436    0.339
 3795.00    0.62269   0.60568    0.329
 3796.00    0.61346   0.60116    0.296
 3797.00    0.60813   0.60098    0.304
 3798.00    0.60705   0.60546    0.368
 3799.00    0.60668   0.61417    0.401
 3800.00    0.60698   0.62668    0.385
 3801.00    0.63115   0.64206    0.388
 3802.00    0.67555   0.65925    0.406
 3803.00    0.70491   0.67718    0.413
 3804.00    0.72305   0.69464    0.410
 3805.00    0.71933   0.71073    0.376
 3806.00    0.70127   0.72459    0.331
 3807.00    0.65832   0.73565    0.319
 3808.00    0.60109   0.74362    0.323
 3809.00    0.60509   0.74825    0.351
 3810.00    0.63969   0.74980    0.402
 3811.00    0.68099   0.74829    0.476
 3812.00    0.72517   0.74433    0.587
 3813.00    0.72876   0.73817    0.433
 3814.00    0.71729   0.73047    0.305
 3815.00    0.68521   0.72163    0.283
 3816.00    0.64666   0.71207    0.280
 3817.00    0.62062   0.70219    0.363
 3818.00    0.59786   0.69205    0.579
 3819.00    0.61725   0.68195    0.458
 3820.00    0.64568   0.67160    0.338
 3821.00    0.62484   0.66119    0.326
 3822.00    0.59564   0.65024    0.326
 3823.00    0.55294   0.63895    0.334
 3824.00    0.50850   0.62681    0.344
 3825.00    0.53480   0.61411    0.314
 3826.00    0.56746   0.60053    0.286
 3827.00    0.56908   0.58655    0.374
 3828.00    0.56904   0.57214    0.557
 3829.00    0.56709   0.55810    0.467
 3830.00    0.56497   0.54461    0.397
 3831.00    0.55075   0.53278    0.343
 3832.00    0.53861   0.52291    0.303
 3833.00    0.57274   0.51621    0.302
 3834.00    0.60284   0.51283    0.302
 3835.00    0.58271   0.51371    0.306
 3836.00    0.56803   0.51860    0.318
 3837.00    0.59941   0.52789    0.424
 3838.00    0.62990   0.54086    0.568
 3839.00    0.65474   0.55717    0.434
 3840.00    0.67385   0.57588    0.353
 3841.00    0.66473   0.59605    0.304
 3842.00    0.65440   0.61688    0.279
 3843.00    0.63922   0.63718    0.309
 3844.00    0.62802   0.65651    0.347
 3845.00    0.63008   0.67388    0.391
 3846.00    0.62685   0.68928    0.424
 3847.00    0.60876   0.70209    0.000
 3848.00    0.60113   0.71265    0.000
 3849.00    0.61862   0.72074    0.000
 3850.00    0.64379   0.72686    0.000
 3851.00    0.68487   0.73105    0.000
 3852.00    0.70836   0.73387    0.000
 3853.00    0.70013   0.73555    0.000
 3854.00    0.69097   0.73654    0.000
 3855.00    0.68035   0.73724    0.000
 3856.00    0.66810   0.73784    0.000
 3857.00    0.65360   0.73881    0.000
 3858.00    0.65346   0.74008    0.000
 3859.00    0.67083   0.74194    0.000
 3860.00    0.69189   0.74411    0.000
 3861.00    0.71689   0.74657    0.000
 3862.00    0.70798   0.74904    0.000
 3863.00    0.66693   0.75116    0.000
 3864.00    0.62031   0.75282    0.000
 3865.00    0.56905   0.75362    0.000
 3866.00    0.53179   0.75362    0.000
 3867.00    0.50483   0.75265    0.000
 3868.00    0.49059   0.75079    0.000
 3869.00    0.48459   0.74820    0.000
 3870.00    0.44995   0.74480    0.000
 3871.00    0.39914   0.74104    0.000
 3872.00    0.42339   0.73647    0.000
 3873.00    0.48456   0.73164    0.000
 3874.00    0.52528   0.72579    0.000
 3875.00    0.55729   0.71954    0.000
 3876.00    0.57974   0.71194    0.000
 3877.00    0.59870   0.70369    0.000
 3878.00    0.63121   0.69391    0.000
 3879.00    0.66790   0.68340    0.000
 3880.00    0.66259   0.67168    0.000
 3881.00    0.64650   0.65963    0.412
 3882.00    0.68805   0.64736    0.378
 3883.00    0.74165   0.63573    0.335
 3884.00    0.72120   0.62531    0.365
 3885.00    0.68855   0.61684    0.418
 3886.00    0.71004   0.61111    0.381
 3887.00    0.73823   0.60849    0.341
 3888.00    0.72462   0.60964    0.300
 3889.00    0.70742   0.61416    0.268
 3890.00    0.71989   0.62240    0.312
 3891.00    0.73384   0.63333    0.380
 3892.00    0.74340   0.64699    0.357
 3893.00    0.75264   0.66188    0.335
 3894.00    0.74530   0.67788    0.311
 3895.00    0.73733   0.69389    0.292
 3896.00    0.71654   0.70953    0.300
 3897.00    0.69631   0.72438    0.306
 3898.00    0.68254   0.73795    0.279
 3899.00    0.66670   0.75072    0.260
 3900.00    0.63408   0.76199    0.274
 3901.00    0.60122   0.77269    0.286
 3902.00    0.56694   0.78240    0.277
 3903.00    0.53355   0.79184    0.263
 3904.00    0.50441   0.80091    0.226
 3905.00    0.48078   0.80972    0.205
 3906.00    0.47867   0.81827    0.212
 3907.00    0.48024   0.82615    0.220
 3908.00    0.49381   0.83346    0.227
 3909.00    0.51448   0.83952    0.236
 3910.00    0.55478   0.84416    0.251
 3911.00    0.60633   0.84692    0.264
 3912.00    0.68446   0.84751    0.267
 3913.00    0.74649   0.84621    0.271
 3914.00    0.77564   0.84231    0.275
 3915.00    0.78658   0.83672    0.288
 3916.00    0.76517   0.82874    0.321
 3917.00    0.75624   0.81942    0.333
 3918.00    0.76668   0.80819    0.307
 3919.00    0.77228   0.79585    0.296
 3920.00    0.77124   0.78208    0.302
 3921.00    0.74946   0.76706    0.305
 3922.00    0.70273   0.75086    0.305
 3923.00    0.70541   0.73304    0.302
 3924.00    0.76041   0.71434    0.298
 3925.00    0.81150   0.69409    0.314
 3926.00    0.85894   0.67349    0.358
 3927.00    0.86474   0.65244    0.359
 3928.00    0.83626   0.63223    0.323
 3929.00    0.80687   0.61337    0.311
 3930.00    0.77683   0.59701    0.312
 3931.00    0.76083   0.58403    0.326
 3932.00    0.75376   0.57509    0.350
 3933.00    0.74669   0.57100    0.353
 3934.00    0.73962   0.57183    0.343
 3935.00    0.75578   0.57757    0.331
 3936.00    0.78318   0.58782    0.320
 3937.00    0.81468   0.60188    0.306
 3938.00    0.84789   0.61897    0.292
 3939.00    0.82956   0.63810    0.298
 3940.00    0.79279   0.65846    0.312
 3941.00    0.80491   0.67920    0.311
 3942.00    0.83181   0.69959    0.304
 3943.00    0.83187   0.71899    0.293
 3944.00    0.82518   0.73711    0.281
 3945.00    0.82356   0.75352    0.270
 3946.00    0.82297   0.76823    0.261
 3947.00    0.86357   0.78078    0.266
 3948.00    0.91076   0.79125    0.274
 3949.00    0.88985   0.79942    0.285
 3950.00    0.86082   0.80504    0.297
 3951.00    0.89058   0.80806    0.312
 3952.00    0.92513   0.80814    0.329
 3953.00    0.93936   0.80476    0.316
 3954.00    0.95265   0.79773    0.303
 3955.00    0.90583   0.78721    0.280
 3956.00    0.85915   0.77296    0.260
 3957.00    0.85976   0.75487    0.286
 3958.00    0.85895   0.73317    0.313
 3959.00    0.83108   0.70822    0.296
 3960.00    0.80406   0.68088    0.000
 3961.00    0.78662   0.65159    0.000
 3962.00    0.77163   0.62149    0.000
 3963.00    0.77594   0.59195    0.000
 3964.00    0.78145   0.56449    0.000
 3965.00    0.79410   0.54012    0.000
 3966.00    0.78913   0.52036    0.000
 3967.00    0.70147   0.50637    0.000
 3968.00    0.64550   0.49915    0.000
 3969.00    0.71098   0.49938    0.000
 3970.00    0.77368   0.50686    0.000
 3971.00    0.82753   0.52139    0.000
 3972.00    0.87839   0.54227    0.000
 3973.00    0.92115   0.56854    0.000
 3974.00    0.94428   0.59889    0.000
 3975.00    0.92187   0.63196    0.000
 3976.00    0.92749   0.66628    0.000
 3977.00    0.98943   0.70054    0.000
 3978.00    1.01863   0.73359    0.000
 3979.00    0.99057   0.76462    0.000
 3980.00    0.96281   0.79314    0.000
 3981.00    0.93550   0.81884    0.303
 3982.00    0.92821   0.84173    0.305
 3983.00    0.94783   0.86181    0.291
 3984.00    0.96142   0.87933    0.282
 3985.00    0.96787   0.89448    0.279
 3986.00    0.98762   0.90746    0.281
 3987.00    1.02124   0.91865    0.288
 3988.00    1.03295   0.92839    0.294
 3989.00    1.02447   0.93663    0.299
 3990.00    1.01283   0.94377    0.296
 3991.00    0.99861   0.94954    0.287
 3992.00    0.99809   0.95466    0.284
 3993.00    1.00737   0.95880    0.284
 3994.00    1.01062   0.96205    0.280
 3995.00    1.01009   0.96531    0.272
 3996.00    1.01672   0.96788    0.269
 3997.00    1.02728   0.97059    0.269
 3998.00    1.02133   0.97269    0.268
 3999.00    1.00750   0.97479    0.268
 4000.00    1.01423   0.97669    0.274
 4001.00    1.02942   0.97848    0.284
 4002.00    1.03597   0.98054    0.282
 4003.00    1.03950   0.98267    0.277
 4004.00    1.00360   0.98548    0.281
 4005.00    0.95601   0.98802    0.289
 4006.00    0.96676   0.99155    0.287
 4007.00    0.99183   0.99536    0.283
 4008.00    0.99962   1.00008    0.282
 4009.00    1.00397   1.00499    0.282
 4010.00    1.00174   1.01069    0.278
 4011.00    0.99848   1.01705    0.275
 4012.00    1.00825   1.02300    0.270
 4013.00    1.01953   1.02869    0.265
 4014.00    1.00901   1.03341    0.269
 4015.00    0.99679   1.03749    0.273
 4016.00    1.00199   1.04032    0.288
 4017.00    1.00791   1.04219    0.304
 4018.00    1.02441   1.04286    0.301
 4019.00    1.04030   1.04223    0.298
 4020.00    1.02503   1.04052    0.280
 4021.00    1.01099   1.03740    0.266
 4022.00    1.01862   1.03320    0.266
 4023.00    1.02636   1.02878    0.267
 4024.00    1.03534   1.02302    0.279
 4025.00    1.04561   1.01714    0.290
 4026.00    1.06568   1.01080    0.285
 4027.00    1.06740   1.00519    0.283
 4028.00    0.96322   0.99972    0.299
 4029.00    0.88051   0.99543    0.311
 4030.00    0.89618   0.99251    0.296
 4031.00    0.89334   0.99104    0.281
 4032.00    0.82107   0.99093    0.263
 4033.00    0.76736   0.99194    0.251
 4034.00    0.77188   0.99407    0.254
 4035.00    0.77868   0.99641    0.256
 4036.00    0.79156   1.00016    0.258
 4037.00    0.81350   1.00295    0.262
 4038.00    0.85614   1.00598    0.273
 4039.00    0.88471   1.00754    0.280
 4040.00    0.88545   1.00825    0.278
 4041.00    0.88976   1.00761    0.276
 4042.00    0.90020   1.00614    0.275
 4043.00    0.91566   1.00361    0.272
 4044.00    0.93867   1.00128    0.266
 4045.00    0.96629   0.99915    0.270
 4046.00    1.00000   0.99792    0.285
 4047.00    1.02679   0.99760    0.295
 4048.00    1.04549   0.99663    0.297
 4049.00    1.04973   0.99656    0.299
 4050.00    1.03911   0.99665    0.300
 4051.00    1.01920   0.99796    0.290
 4052.00    0.99087   0.99802    0.271
 4053.00    0.98925   0.99638    0.264
 4054.00    1.00900   0.99396    0.264
 4055.00    0.99047   0.99078    0.264
 4056.00    0.94496   0.98732    0.265
 4057.00    0.95860   0.98303    0.269
 4058.00    1.00878   0.97907    0.274
 4059.00    1.01950   0.97504    0.283
 4060.00    1.00893   0.97217    0.295
 4061.00    0.99832   0.96927    0.288
 4062.00    0.98769   0.96636    0.273
 4063.00    0.97865   0.96487    0.269
 4064.00    0.97026   0.96410    0.267
 4065.00    0.96245   0.96358    0.270
 4066.00    0.95483   0.96271    0.273
 4067.00    0.97915   0.96207    0.279
 4068.00    1.01275   0.96171    0.286
 4069.00    1.00225   0.96231    0.279
 4070.00    0.98115   0.96222    0.271
 4071.00    1.01074   0.96164    0.275
 4072.00    1.05014   0.96148    0.281
 4073.00    1.09421   0.96176    0.279
 4074.00    1.13898   0.96170    0.276
 4075.00    1.07313   0.96226    0.275
 4076.00    0.99504   0.96376    0.275
 4077.00    0.98222   0.96739    0.278
 4078.00    0.97417   0.97161    0.281
 4079.00    0.98812   0.97626    0.287
 4080.00    1.00292   0.98179    0.294
 4081.00    0.98486   0.98783    0.287
 4082.00    0.96913   0.99456    0.280
 4083.00    1.04830   1.00093    0.276
 4084.00    1.12268   1.00633    0.272
 4085.00    1.11827   1.00995    0.275
 4086.00    1.10623   1.01143    0.277
 4087.00    1.01566   1.01044    0.274
 4088.00    0.94621   1.00707    0.271
 4089.00    1.03168   1.00140    0.274
 4090.00    1.10057   0.99255    0.275
 4091.00    1.07645   0.98123    0.268
 4092.00    1.05581   0.96644    0.000
 4093.00    1.05070   0.94950    0.000
 4094.00    1.04785   0.93047    0.000
 4095.00    1.05332   0.91093    0.000
 4096.00    1.06108   0.89197    0.000
 4097.00    1.07593   0.87374    0.000
 4098.00    1.07104   0.85815    0.000
 4099.00    1.01461   0.84495    0.000
 4100.00    0.95766   0.83544    0.000
 4101.00    0.89957   0.83029    0.000
 4102.00    0.89434   0.82934    0.000
 4103.00    0.99197   0.83219    0.000
 4104.00    1.05045   0.83912    0.000
 4105.00    1.04250   0.84913    0.000
 4106.00    1.01916   0.86226    0.000
 4107.00    0.97294   0.87726    0.000
 4108.00    0.94829   0.89305    0.000
 4109.00    0.95184   0.90814    0.000
 4110.00    0.96179   0.92283    0.000
 4111.00    0.97912   0.93592    0.000
 4112.00    1.00117   0.94740    0.000
 4113.00    1.02802   0.95791    0.253
 4114.00    1.05073   0.96625    0.254
 4115.00    1.06972   0.97357    0.257
 4116.00    1.05673   0.97886    0.259
 4117.00    1.01851   0.98300    0.258
 4118.00    0.98731   0.98558    0.256
 4119.00    0.96098   0.98648    0.251
 4120.00    0.98602   0.98635    0.365
 4121.00    1.04232   0.98476    1.418
 4122.00    1.05878   0.98333   -1.000
 4123.00    1.05406   0.98053   -1.000
 4124.00    1.05202   0.97839   -1.000
 4125.00    1.05122   0.97518   -1.000
 4126.00    1.00663   0.97258   -1.000
 4127.00    0.94466   0.97016   -1.000
 4128.00    0.94208   0.96810    0.663
 4129.00    0.95960   0.96736    0.283
 4130.00    0.99006   0.96602    0.254
 4131.00    1.02421   0.96693    0.258
 4132.00    1.03694   0.96785    0.254
 4133.00    1.04463   0.97044    0.248
 4134.00    1.02191   0.97257    0.247
 4135.00    0.99346   0.97503    0.247
 4136.00    1.02108   0.97687    0.258
 4137.00    1.05689   0.97865    0.270
 4138.00    1.07036   0.98094    0.265
 4139.00    1.08146   0.98110    0.258
 4140.00    1.05978   0.98100    0.251
 4141.00    1.03582   0.97952    0.243
 4142.00    1.04319   0.97730    0.254
 4143.00    1.05163   0.97497    0.267
 4144.00    1.05136   0.97238    0.266
 4145.00    1.05081   0.96955    0.266
 4146.00    1.04174   0.96777    0.270
 4147.00    1.03327   0.96648    0.272
 4148.00    1.03421   0.96648    0.265
 4149.00    1.03367   0.96693    0.260
 4150.00    1.01848   0.96760    0.264
 4151.00    1.00402   0.96879    0.269
 4152.00    0.99473   0.96994    0.274
 4153.00    0.98175   0.97274    0.277
 4154.00    0.94863   0.97465    0.270
 4155.00    0.92183   0.97884    0.262
 4156.00    0.92271   0.98243    0.256
 4157.00    0.92092   0.98649    0.253
 4158.00    0.90957   0.99094    0.258
 4159.00    0.91583   0.99454    0.259
 4160.00    0.97527   0.99849    0.248
 4161.00    1.01832   1.00079    0.242
 4162.00    1.01929   1.00320    0.246
 4163.00    1.01966   1.00323    0.248
 4164.00    1.01872   1.00210    0.245
 4165.00    1.01183   0.99879    0.243
 4166.00    0.99354   0.99411    0.242
 4167.00    0.96480   0.98905    0.242
 4168.00    0.91860   0.98281    0.241
 4169.00    0.89530   0.97608    0.240
 4170.00    0.90552   0.96901    0.237
 4171.00    0.91323   0.96275    0.238
 4172.00    0.91771   0.95689    0.245
 4173.00    0.92678   0.95249    0.253
 4174.00    0.94106   0.94824    0.263
 4175.00    0.96699   0.94539    0.264
 4176.00    1.00458   0.94487    0.257
 4177.00    1.03373   0.94554    0.255
 4178.00    1.05543   0.94836    0.258
 4179.00    1.04049   0.95113    0.253
 4180.00    0.99707   0.95403    0.243
 4181.00    0.98480   0.95820    0.238
 4182.00    0.99384   0.96274    0.236
 4183.00    0.99204   0.96757    0.237
 4184.00    0.98376   0.97114    0.239
 4185.00    0.99088   0.97547    0.241
 4186.00    1.00606   0.97918    0.243
 4187.00    1.00538   0.98241    0.239
 4188.00    0.99750   0.98468    0.233
 4189.00    1.00130   0.98462    0.233
 4190.00    1.00965   0.98508    0.236
 4191.00    0.98348   0.98393    0.234
 4192.00    0.94585   0.98255    0.230
 4193.00    0.95106   0.98046    0.230
 4194.00    0.96820   0.97730    0.230
 4195.00    1.00762   0.97448    0.230
 4196.00    1.05215   0.97116    0.230
 4197.00    1.01379   0.96819    0.232
 4198.00    0.96019   0.96556    0.234
 4199.00    0.95431   0.96473    0.233
 4200.00    0.95517   0.96487    0.231
 4201.00    0.94080   0.96690    0.227
 4202.00    0.92487   0.97061    0.223
 4203.00    0.98438   0.97475    0.223
 4204.00    1.04880   0.97989    0.223
 4205.00    1.01521   0.98615    0.221
 4206.00    0.97872   0.99241    0.219
 4207.00    1.01225   0.99834    0.225
 4208.00    1.04492   1.00382    0.231
 4209.00    1.05217   1.00842    0.225
 4210.00    1.05825   1.01290    0.220
 4211.00    1.04734   1.01613    0.223
 4212.00    1.03703   1.01865    0.225
 4213.00    1.03248   1.02022    0.223
 4214.00    1.02584   1.02148    0.221
 4215.00    1.00482   1.02057    0.216
 4216.00    0.97506   1.01882    0.211
 4217.00    0.89882   1.01491    0.207
 4218.00    0.83993   1.00964    0.204
 4219.00    0.85512   1.00461    0.203
 4220.00    0.87088   0.99750    0.203
 4221.00    0.88864   0.99106    0.207
 4222.00    0.88923   0.98348    0.209
 4223.00    0.83896   0.97740    0.208
 4224.00    0.81672   0.97133    0.207
 4225.00    0.86519   0.96572    0.208
 4226.00    0.91315   0.96181    0.209
 4227.00    0.95999   0.95914    0.210
 4228.00    0.98898   0.95862    0.210
 4229.00    0.98433   0.95996    0.207
 4230.00    0.95683   0.96526    0.204
 4231.00    0.89169   0.97106    0.200
 4232.00    0.84097   0.97753    0.198
 4233.00    0.81107   0.98419    0.198
 4234.00    0.81360   0.99039    0.198
 4235.00    0.85731   0.99575    0.198
 4236.00    0.87929   1.00221    0.197
 4237.00    0.87696   1.00915    0.194
 4238.00    0.88637   1.01425    0.194
 4239.00    0.90735   1.02098    0.196
 4240.00    0.93682   1.02556    0.199
 4241.00    0.97366   1.02895    0.202
 4242.00    0.99355   1.03150    0.204
 4243.00    1.00045   1.03267    0.205
 4244.00    1.00372   1.03310    0.206
 4245.00    1.00455   1.03120    0.207
 4246.00    1.02955   1.02978    0.213
 4247.00    1.06884   1.02674    0.220
 4248.00    1.08503   1.02243    0.228
 4249.00    1.08933   1.01815    0.236
 4250.00    1.06942   1.01413    0.234
 4251.00    1.03872   1.01175    0.227
 4252.00    0.98833   1.00926    0.222
 4253.00    0.93039   1.00726    0.217
 4254.00    0.91631   1.00735    0.211
 4255.00    0.91653   1.00777    0.206
 4256.00    0.90491   1.00878    0.206
 4257.00    0.89005   1.01144    0.207
 4258.00    0.90770   1.01520    0.209
 4259.00    0.93265   1.01953    0.211
 4260.00    0.96330   1.02179    0.212
 4261.00    0.99497   1.02374    0.213
 4262.00    0.95485   1.02422    0.212
 4263.00    0.90491   1.02415    0.210
 4264.00    0.95155   1.02407    0.214
 4265.00    1.00762   1.02194    0.217
 4266.00    0.98212   1.01815    0.219
 4267.00    0.95163   1.01267    0.220
 4268.00    0.85135   1.00805    0.213
 4269.00    0.74969   1.00140    0.206
 4270.00    0.74605   0.99559    0.203
 4271.00    0.74221   0.99200    0.201
 4272.00    0.73340   0.98907    0.203
 4273.00    0.73062   0.98713    0.205
 4274.00    0.81073   0.98667    0.209
 4275.00    0.89053   0.98842    0.214
 4276.00    0.96754   0.99067    0.221
 4277.00    1.03814   0.99325    0.227
 4278.00    1.06601   0.99665    0.229
 4279.00    1.08092   0.99999    0.229
 4280.00    1.02876   1.00078    0.225
 4281.00    0.99451   1.00102    0.223
 4282.00    1.03499   0.99800   -2.000
 4283.00    1.05859   0.99494   -2.000
 4284.00    1.02391   0.99047   -2.000
 4285.00    0.98997   0.98425   -2.000
 4286.00    0.95815   0.98001   -2.000
 4287.00    0.95395   0.97306   -2.000
 4288.00    1.01822   0.96732   -2.000
 4289.00    1.05023   0.95951   -2.000
 4290.00    1.01327   0.95221   -2.000
 4291.00    1.02114   0.94437   -2.000
 4292.00    1.11222   0.93502   -2.000
 4293.00    1.14189   0.92848   -2.000
 4294.00    1.07196   0.91959   -2.000
 4295.00    1.02029   0.91151   -2.000
 4296.00    0.99461   0.90171   -2.000
 4297.00    0.97294   0.89214   -2.000
 4298.00    0.95629   0.88329    0.218
 4299.00    0.94970   0.87438    0.217
 4300.00    0.95421   0.86654    0.218
 4301.00    0.97219   0.85848    0.222
 4302.00    1.00328   0.85297    0.229
 4303.00    0.95781   0.85039    0.231
 4304.00    0.84664   0.85081    0.229
 4305.00    0.81729   0.85321    0.229
 4306.00    0.84975   0.86028    0.231
 4307.00    0.88020   0.86830    0.229
 4308.00    0.90931   0.87879    0.226
 4309.00    0.97542   0.89202    0.239
 4310.00    1.06304   0.90657    0.265
 4311.00    1.07036   0.92574    0.272
 4312.00    1.03700   0.94445    0.266
 4313.00    1.08488   0.96339    0.267
 4314.00    1.16842   0.98035    0.271
 4315.00    1.16708   0.99594    0.245
 4316.00    1.13377   1.00870    0.216
 4317.00    1.06769   1.01972    0.207
 4318.00    0.99113   1.02900    0.203
 4319.00    0.99183   1.03334    0.203
 4320.00    1.01319   1.03424    0.205
 4321.00    1.02678   1.03288    0.206
 4322.00    1.03867   1.03278    0.208
 4323.00    1.02673   1.03026    0.209
 4324.00    1.01065   1.02854    0.209
 4325.00    0.97980   1.02410    0.208
 4326.00    0.94700   1.01879    0.207
 4327.00    1.01871   1.01485    0.208
 4328.00    1.10018   1.01005    0.210
 4329.00    1.12922   1.00854    0.210
 4330.00    1.15526   1.00547    0.000
 4331.00    1.13033   0.99994    0.000
 4332.00    1.10422   0.98914    0.000
 4333.00    1.07788   0.97739    0.000
 4334.00    1.05190   0.96708    0.000
 4335.00    1.03449   0.95425    0.000
 4336.00    1.01837   0.94375    0.000
 4337.00    1.01894   0.93580    0.000
 4338.00    1.01975   0.92797    0.000
 4339.00    1.02268   0.91904    0.000
 4340.00    1.02899   0.91504    0.000
 4341.00    1.05713   0.91628    0.000
 4342.00    1.08760   0.91887    0.000
 4343.00    1.12973   0.92669    0.000
 4344.00    1.15428   0.93934    0.000
 4345.00    1.10706   0.95162    0.000
 4346.00    1.06041   0.96088    0.000
 4347.00    1.01570   0.97291    0.000
 4348.00    0.99114   0.98746    0.000
 4349.00    1.02405   1.00034    0.000
 4350.00    1.05337   1.01328    0.000
 4351.00    1.07393   1.02676    0.201
 4352.00    1.08568   1.03851    0.201
 4353.00    1.07891   1.04621    0.200
 4354.00    1.09013   1.05417    0.243
 4355.00    1.13421   1.06609    0.638
 4356.00    1.16256   1.07789   -1.000
 4357.00    1.16578   1.08794   -1.000
 4358.00    1.16027   1.09719   -1.000
 4359.00    1.14252   1.10650   -1.000
 4360.00    1.12082   1.11342   -1.000
 4361.00    1.09424   1.11773   -1.000
 4362.00    1.08832   1.12190    0.841
 4363.00    1.10490   1.12530    0.272
 4364.00    1.11699   1.12756    0.203
 4365.00    1.12477   1.12666    0.201
 4366.00    1.13107   1.12547    0.201
 4367.00    1.13610   1.12308    0.202
 4368.00    1.13890   1.11726    0.204
 4369.00    1.14005   1.10927    0.205
 4370.00    1.12053   1.10108    0.204
 4371.00    1.08749   1.09507    0.201
 4372.00    1.10649   1.08884    0.201
 4373.00    1.15530   1.08199    0.203
 4374.00    1.17874   1.07498    0.205
 4375.00    1.18954   1.06587    0.208
 4376.00    1.15813   1.05607    0.206
 4377.00    1.10850   1.04611    0.203
 4378.00    1.09391   1.03614    0.203
 4379.00    1.09228   1.02826    0.206
 4380.00    1.06479   1.02110    0.205
 4381.00    1.02918   1.01521    0.204
 4382.00    1.01746   1.00838    0.204
 4383.00    1.01201   1.00255    0.203
 4384.00    1.00915   0.99909    0.201
 4385.00    1.00684   0.99483    0.199
 4386.00    1.03645   0.99504    0.199
 4387.00    1.07145   1.00021    0.200
 4388.00    1.09430   1.00721    0.197
 4389.00    1.11560   1.01309    0.194
 4390.00    1.10772   1.01779    0.195
 4391.00    1.09724   1.02579    0.197
 4392.00    1.11181   1.03326    0.199
 4393.00    1.12772   1.03940    0.201
 4394.00    1.13660   1.04697    0.201
 4395.00    1.14462   1.05125    0.201
 4396.00    1.09395   1.05370    0.196
 4397.00    1.04683   1.05611    0.193
 4398.00    1.07747   1.05817    0.197
 4399.00    1.10700   1.05886    0.202
 4400.00    1.12274   1.05661    0.203
 4401.00    1.13469   1.05594    0.204
 4402.00    1.11463   1.05380    0.203
 4403.00    1.09862   1.05156    0.202
 4404.00    1.10788   1.05380    0.203
 4405.00    1.11252   1.05542    0.204
 4406.00    1.09440   1.05507    0.205
 4407.00    1.08173   1.05670    0.206
 4408.00    1.09084   1.06246    0.207
 4409.00    1.09104   1.06633    0.207
 4410.00    1.06172   1.06731    0.202
 4411.00    1.04569   1.07251    0.199
 4412.00    1.06688   1.07838    0.198
 4413.00    1.08920   1.08295    0.197
 4414.00    1.11420   1.08811    0.197
 4415.00    1.13249   1.09286    0.196
 4416.00    1.13690   1.09535    0.198
 4417.00    1.12862   1.09446    0.200
 4418.00    1.09750   1.09764    0.201
 4419.00    1.09038   1.10260    0.202
 4420.00    1.12105   1.10456    0.201
 4421.00    1.12332   1.10780    0.199
 4422.00    1.08635   1.10870    0.196
 4423.00    1.08059   1.10851    0.197
 4424.00    1.11280   1.10749    0.202
 4425.00    1.14681   1.10539    0.204
 4426.00    1.18274   1.10761    0.204
 4427.00    1.18170   1.10766    0.203
 4428.00    1.14571   1.10648    0.202
 4429.00    1.13387   1.10528    0.203
 4430.00    1.14218   1.10267    0.204
 4431.00    1.14516   1.10283    0.204
 4432.00    1.14422   1.10151    0.202
 4433.00    1.14279   1.10266    0.200
 4434.00    1.14103   1.10657    0.197
 4435.00    1.15253   1.10722    0.199
 4436.00    1.17152   1.10779    0.202
 4437.00    1.15476   1.10758    0.204
 4438.00    1.12044   1.10981    0.205
 4439.00    1.14108   1.11476    0.208
 4440.00    1.18505   1.11887    0.211
 4441.00    1.17151   1.12327    0.210
 4442.00    1.13708   1.12432    0.208
 4443.00    1.14404   1.12507    0.208
 4444.00    1.16374   1.12545    0.208
 4445.00    1.15600   1.12478    0.206
 4446.00    1.14123   1.12652    0.203
 4447.00    1.10952   1.12675    0.201
 4448.00    1.07427   1.12510    0.199
 4449.00    1.08718   1.11897    0.198
 4450.00    1.10799   1.11220    0.198
 4451.00    1.11040   1.10736    0.199
 4452.00    1.11054   1.09936    0.200
 4453.00    1.07011   1.09340    0.196
 4454.00    1.02623   1.08719    0.191
 4455.00    1.07866   1.08024    0.195
 4456.00    1.13584   1.07291    0.198
 4457.00    1.14433   1.06559    0.198
 4458.00    1.15128   1.06446    0.197
 4459.00    1.10996   1.06347    0.195
 4460.00    1.06957   1.06358    0.192
 4461.00    1.04812   1.06456    0.000
 4462.00    1.02962   1.06693    0.000
 4463.00    1.04575   1.07155    0.000
 4464.00    1.06598   1.07517    0.000
 4465.00    1.11942   1.08375    0.000
 4466.00    1.16192   1.09171    0.000
 4467.00    1.13778   1.09898    0.000
 4468.00    1.11722   1.10796    0.000
 4469.00    1.11385   1.11591    0.000
 4470.00    1.11814   1.12446    0.000
 4471.00    1.15234   1.13124    0.000
 4472.00    1.18314   1.13908    0.000
 4473.00    1.20288   1.14724    0.000
 4474.00    1.20868   1.15348    0.000
 4475.00    1.17613   1.15858    0.000
 4476.00    1.17068   1.16153    0.000
 4477.00    1.22910   1.16293    0.000
 4478.00    1.24883   1.16483    0.000
 4479.00    1.18976   1.16698    0.000
 4480.00    1.14830   1.16869    0.000
 4481.00    1.13810   1.16858    0.000
 4482.00    1.13654   1.16659    0.193
 4483.00    1.14841   1.16495    0.196
 4484.00    1.16721   1.16312    0.197
 4485.00    1.19546   1.16347    0.196
 4486.00    1.19757   1.16372    0.195
 4487.00    1.16834   1.16330    0.194
 4488.00    1.16000   1.16360    0.194
 4489.00    1.17374   1.16199    0.194
 4490.00    1.15883   1.16142    0.192
 4491.00    1.11719   1.16042    0.188
 4492.00    1.10799   1.16221    0.188
 4493.00    1.12545   1.16763    0.189
 4494.00    1.13853   1.17198    0.191
 4495.00    1.14844   1.17743    0.193
 4496.00    1.13170   1.17994    0.191
 4497.00    1.09803   1.18559    0.188
 4498.00    1.10580   1.19470    0.188
 4499.00    1.13658   1.20316    0.190
 4500.00    1.14668   1.21404    0.192
 4501.00    1.14679   1.22112    0.192
 4502.00    1.13014   1.22717    0.190
 4503.00    1.10650   1.23217    0.187
 4504.00    1.13291   1.23666    0.188
 4505.00    1.17717   1.24398    0.190
 4506.00    1.16623   1.24760    0.189
 4507.00    1.13863   1.24798    0.187
 4508.00    1.13767   1.24642    0.188
 4509.00    1.14337   1.24345    0.188
 4510.00    1.13961   1.24111    0.187
 4511.00    1.13394   1.23877    0.186
 4512.00    1.13121   1.23436    0.187
 4513.00    1.12895   1.22887    0.189
 4514.00    1.13616   1.22262    0.192
 4515.00    1.14450   1.21502    0.194
 4516.00    1.14913   1.20961    0.193
 4517.00    1.15347   1.20222    0.193
 4518.00    1.17132   1.19507    0.192
 4519.00    1.18979   1.18743    0.190
 4520.00    1.18740   1.17666    0.191
 4521.00    1.18451   1.16940    0.191
 4522.00    1.16925   1.16076    0.190
 4523.00    1.15342   1.15160    0.189
 4524.00    1.12686   1.14227    0.188
 4525.00    1.10335   1.13134    0.187
 4526.00    1.11391   1.12504    0.187
 4527.00    1.12327   1.12063    0.187
 4528.00    1.12311   1.11495    0.186
 4529.00    1.11830   1.11166    0.185
 4530.00    1.08605   1.10833    0.185
 4531.00    1.06185   1.10768    0.186
 4532.00    1.07533   1.11219    0.187
 4533.00    1.09325   1.11564    0.189
 4534.00    1.12814   1.12192    0.189
 4535.00    1.15338   1.12615    0.189
 4536.00    1.14789   1.12907    0.189
 4537.00    1.15643   1.13558    0.188
 4538.00    1.20289   1.14149    0.188
 4539.00    1.22674   1.14849    0.188
 4540.00    1.19821   1.15253    0.189
 4541.00    1.17586   1.15319    0.189
 4542.00    1.16591   1.15399    0.186
 4543.00    1.14982   1.15532    0.185
 4544.00    1.12303   1.15619    0.187
 4545.00    1.12172   1.15672    0.188
 4546.00    1.15936   1.15480    0.189
 4547.00    1.17771   1.15240    0.189
 4548.00    1.17017   1.15350    0.189
 4549.00    1.15878   1.15324    0.189
 4550.00    1.14283   1.15358    0.000
 4551.00    1.14011   1.15364    0.000
 4552.00    1.15118   1.15505    0.000
 4553.00    1.14465   1.16045    0.000
 4554.00    1.12194   1.16430    0.000
 4555.00    1.13085   1.16741    0.000
 4556.00    1.16537   1.17084    0.000
 4557.00    1.18539   1.17566    0.000
 4558.00    1.19508   1.18165    0.000
 4559.00    1.20075   1.18773    0.000
 4560.00    1.20390   1.19102    0.000
 4561.00    1.18563   1.19280    0.000
 4562.00    1.15564   1.19649    0.000
 4563.00    1.15715   1.19980    0.000
 4564.00    1.17363   1.20399    0.000
 4565.00    1.17267   1.20568    0.000
 4566.00    1.16455   1.20424    0.000
 4567.00    1.17912   1.20558    0.000
 4568.00    1.20164   1.20654    0.000
 4569.00    1.20488   1.20764    0.000
 4570.00    1.20242   1.20864    0.000
 4571.00    1.19977   1.20562    0.000
 4572.00    1.19706   1.20379    0.000
 4573.00    1.19775   1.20120    0.000
 4574.00    1.19911   1.19819    0.000
 4575.00    1.18185   1.19732    0.000
 4576.00    1.16172   1.19273    0.000
 4577.00    1.14119   1.18787    0.000
 4578.00    1.12061   1.18353    0.000
 4579.00    1.11080   1.18017    0.000
 4580.00    1.10181   1.17829    0.000
 4581.00    1.12677   1.17421    0.000
 4582.00    1.15315   1.17111    0.000
 4583.00    1.16826   1.16920    0.000
 4584.00    1.18296   1.16959    0.000
 4585.00    1.18449   1.16974    0.000
 4586.00    1.18550   1.16851    0.000
 4587.00    1.17749   1.16836    0.000
 4588.00    1.17049   1.16802    0.000
 4589.00    1.17424   1.16946    0.000
 4590.00    1.17407   1.17009    0.000
 4591.00    1.14424   1.17044    0.000
 4592.00    1.12106   1.16992    0.000
 4593.00    1.13603   1.16903    0.000
 4594.00    1.14597   1.17019    0.000
 4595.00    1.13288   1.17026    0.000
 4596.00    1.13059   1.17244    0.000
 4597.00    1.16870   1.17263    0.000
 4598.00    1.19213   1.17343    0.000
 4599.00    1.16967   1.17789    0.000
 4600.00    1.16168   1.18021    0.000
 4601.00    1.19211   1.18564    0.000
 4602.00    1.20914   1.18903    0.000
 4603.00    1.19564   1.19277    0.000
 4604.00    1.17673   1.20089    0.000
 4605.00    1.14717   1.20612    0.000
 4606.00    1.14491   1.21265    0.000
 4607.00    1.18959   1.21760    0.000
 4608.00    1.20848   1.22100    0.000
 4609.00    1.18855   1.22782    0.000
 4610.00    1.19308   1.23254    0.000
 4611.00    1.23000   1.23601    0.000
 4612.00    1.23760   1.23946    0.000
 4613.00    1.21105   1.24012    0.000
 4614.00    1.18836   1.24247    0.000
 4615.00    1.16962   1.24470    0.000
 4616.00    1.16746   1.24483    0.000
 4617.00    1.18032   1.24628    0.000
 4618.00    1.20000   1.24614    0.000
 4619.00    1.22515   1.24568    0.000
 4620.00    1.21903   1.24590    0.000
 4621.00    1.19094   1.24455    0.000
 4622.00    1.17734   1.24396    0.000
 4623.00    1.17267   1.24390    0.000
 4624.00    1.17401   1.24198    0.000
 4625.00    1.17859   1.23980    0.000
 4626.00    1.17996   1.23713    0.000
 4627.00    1.17984   1.23384    0.000
 4628.00    1.16601   1.23235    0.000
 4629.00    1.14664   1.22874    0.000
 4630.00    1.16173   1.22339    0.000
 4631.00    1.18867   1.21914    0.000
 4632.00    1.20988   1.21385    0.000
 4633.00    1.22942   1.21055    0.000
 4634.00    1.21071   1.20586    0.000
 4635.00    1.18283   1.19849    0.000
 4636.00    1.19773   1.19354    0.000
 4637.00    1.22089   1.18811    0.000
 4638.00    1.17357   1.18403    0.000
 4639.00    1.11567   1.17987    0.000
 4640.00    1.16183   1.17343    0.000
 4641.00    1.21944   1.16929    0.000
 4642.00    1.19405   1.16596    0.000
 4643.00    1.16261   1.16279    0.000
 4644.00    1.16925   1.16087    0.000
 4645.00    1.17732   1.15912    0.000
 4646.00    1.17956   1.15776    0.000
 4647.00    1.18103   1.15854    0.000
 4648.00    1.15507   1.15926    0.000
 4649.00    1.13173   1.16054    0.000
 4650.00    1.15132   1.16460    0.000
 4651.00    1.16934   1.16686    0.000
 4652.00    1.17119   1.17015    0.000
 4653.00    1.17084   1.17351    0.000
 4654.00    1.15444   1.17522    0.000
 4655.00    1.14564   1.17967    0.000
 4656.00    1.17935   1.18138    0.000
 4657.00    1.20585   1.18160    0.000
 4658.00    1.20015   1.18101    0.000
 4659.00    1.19399   1.17789    0.000
 4660.00    1.18614   1.17660    0.000
 4661.00    1.18472   1.17420    0.000
 4662.00    1.20300   1.16990    0.000
 4663.00    1.20704   1.16469    0.000
 4664.00    1.17395   1.15820    0.000
 4665.00    1.14682   1.15440    0.000
 4666.00    1.13304   1.15282    0.000
 4667.00    1.13021   1.15069    0.000
 4668.00    1.14866   1.14899    0.000
 4669.00    1.15716   1.14692    0.000
 4670.00    1.14882   1.14697    0.000
 4671.00    1.15157   1.15055    0.000
 4672.00    1.17080   1.15337    0.000
 4673.00    1.18649   1.15661    0.000
 4674.00    1.19758   1.15872    0.000
 4675.00    1.19848   1.16045    0.000
 4676.00    1.18767   1.16435    0.000
 4677.00    1.16557   1.16701    0.000
 4678.00    1.13204   1.16971    0.000
 4679.00    1.11196   1.17110    0.000
 4680.00    1.10389   1.17164    0.000
 4681.00    1.12393   1.17341    0.000
 4682.00    1.16611   1.17415    0.000
 4683.00    1.19695   1.17520    0.000
 4684.00    1.21995   1.17575    0.000
 4685.00    1.19686   1.17576    0.000
 4686.00    1.14578   1.17674    0.000
 4687.00    1.11813   1.17702    0.000
 4688.00    1.10291   1.17681    0.000
 4689.00    1.12354   1.17667    0.000
 4690.00    1.16068   1.17541    0.000
 4691.00    1.15698   1.17470    0.000
 4692.00    1.13712   1.17440    0.000
 4693.00    1.14086   1.17219    0.000
 4694.00    1.15257   1.16976    0.000
 4695.00    1.16206   1.16602    0.000
 4696.00    1.17091   1.16293    0.000
 4697.00    1.17424   1.16172    0.000
 4698.00    1.17628   1.15822    0.000
 4699.00    1.16305   1.15411    0.000
 4700.00    1.14694   1.14989    0.000
 4701.00    1.17331   1.14715    0.000
 4702.00    1.20587   1.14706    0.000
 4703.00    1.19069   1.14613    0.000
 4704.00    1.17046   1.14407    0.000
 4705.00    1.15344   1.14340    0.000
 4706.00    1.13664   1.14454    0.000
 4707.00    1.13021   1.14759    0.000
 4708.00    1.12413   1.15235    0.000
 4709.00    1.14162   1.15472    0.000
 4710.00    1.15847   1.15830    0.000
 4711.00    1.15373   1.16395    0.000
 4712.00    1.15061   1.16976    0.000
 4713.00    1.17227   1.17827    0.000
 4714.00    1.19320   1.18335    0.000
 4715.00    1.20703   1.18781    0.000
 4716.00    1.21924   1.19475    0.000
 4717.00    1.21994   1.19999    0.000
 4718.00    1.21834   1.20567    0.000
 4719.00    1.20423   1.20782    0.000
 4720.00    1.18772   1.20807    0.000
 4721.00    1.16074   1.21058    0.000
 4722.00    1.14181   1.21081    0.000
 4723.00    1.15182   1.20895    0.000
 4724.00    1.16764   1.20529    0.000
 4725.00    1.20098   1.20110    0.000
 4726.00    1.22472   1.19878    0.000
 4727.00    1.22388   1.19614    0.000
 4728.00    1.21850   1.19109    0.000
 4729.00    1.20309   1.18701    0.000
 4730.00    1.19739   1.18589    0.000
 4731.00    1.21024   1.18475    0.000
 4732.00    1.20565   1.18503    0.000
 4733.00    1.17198   1.18427    0.000
 4734.00    1.14783   1.18440    0.000
 4735.00    1.13761   1.18963    0.000
 4736.00    1.14594   1.19239    0.000
 4737.00    1.17811   1.19468    0.000
 4738.00    1.20048   1.19860    0.000
 4739.00    1.21174   1.20157    0.000
 4740.00    1.21432   1.20731    0.000
 4741.00    1.20823   1.21100    0.000
 4742.00    1.19432   1.21221    0.000
 4743.00    1.17352   1.21596    0.000
 4744.00    1.16394   1.21828    0.000
 4745.00    1.16308   1.21965    0.000
 4746.00    1.17469   1.22053    0.000
 4747.00    1.19481   1.21993    0.000
 4748.00    1.20619   1.21976    0.000
 4749.00    1.21235   1.21836    0.000
 4750.00    1.21211   1.21582    0.000
 4751.00    1.20853   1.21299    0.000
 4752.00    1.21246   1.21042    0.000
 4753.00    1.21978   1.20654    0.000
 4754.00    1.21944   1.20142    0.000
 4755.00    1.21611   1.19756    0.000
 4756.00    1.20265   1.19332    0.000
 4757.00    1.18583   1.18941    0.000
 4758.00    1.18413   1.18447    0.000
 4759.00    1.18664   1.17919    0.000
 4760.00    1.19529   1.17657    0.000
 4761.00    1.20535   1.17441    0.159
 4762.00    1.19854   1.17227    0.159
 4763.00    1.18863   1.16949    0.158
 4764.00    1.16878   1.16840    0.158
 4765.00    1.14752   1.16996    0.159
 4766.00    1.13566   1.17267    0.158
 4767.00    1.12476   1.17551    0.158
 4768.00    1.16053   1.17662    0.159
 4769.00    1.19932   1.18076    0.160
 4770.00    1.20487   1.18623    0.159
 4771.00    1.20941   1.19103    0.158
 4772.00    1.20832   1.19598    0.158
 4773.00    1.20654   1.19812    0.157
 4774.00    1.18444   1.20234    0.158
 4775.00    1.16247   1.20579    0.158
 4776.00    1.14245   1.20702    0.157
 4777.00    1.12411   1.20923    0.155
 4778.00    1.12154   1.20806    0.154
 4779.00    1.11394   1.20829    0.154
 4780.00    1.07192   1.20776    0.153
 4781.00    1.03300   1.20512    0.153
 4782.00    1.01055   1.20560    0.152
 4783.00    0.99025   1.20276    0.151
 4784.00    0.97907   1.20138    0.149
 4785.00    0.97914   1.20249    0.148
 4786.00    1.01872   1.20105    0.151
 4787.00    1.05586   1.20304    0.153
 4788.00    1.08577   1.20385    0.155
 4789.00    1.10881   1.20450    0.155
 4790.00    1.11454   1.20874    0.155
 4791.00    1.12775   1.21062    0.155
 4792.00    1.15718   1.21314    0.155
 4793.00    1.18047   1.21633    0.156
 4794.00    1.19220   1.21809    0.159
 4795.00    1.19558   1.22071    0.159
 4796.00    1.18524   1.22163    0.155
 4797.00    1.17569   1.22137    0.153
 4798.00    1.16729   1.22296    0.154
 4799.00    1.16886   1.22330    0.155
 4800.00    1.18305   1.22238    0.156
 4801.00    1.17807   1.22130    0.158
 4802.00    1.15166   1.21901    0.159
 4803.00    1.15116   1.21931    0.159
 4804.00    1.17618   1.21884    0.159
 4805.00    1.18928   1.21667    0.159
 4806.00    1.19204   1.21715    0.161
 4807.00    1.18860   1.21673    0.162
 4808.00    1.18042   1.21752    0.161
 4809.00    1.18041   1.21871    0.160
 4810.00    1.18588   1.21816    0.158
 4811.00    1.18655   1.22078    0.158
 4812.00    1.18440   1.22226    0.159
 4813.00    1.18962   1.22339    0.160
 4814.00    1.19863   1.22587    0.160
 4815.00    1.21611   1.22488    0.161
 4816.00    1.23736   1.22603    0.163
 4817.00    1.21604   1.22706    0.163
 4818.00    1.17842   1.22590    0.162
 4819.00    1.18256   1.22641    0.162
 4820.00    1.20028   1.22204    0.162
 4821.00    1.20215   1.21894    0.161
 4822.00    1.19972   1.21977    0.161
 4823.00    1.20935   1.21621    0.162
 4824.00    1.22168   1.21313    0.162
 4825.00    1.19052   1.20934    0.162
 4826.00    1.15161   1.20553    0.163
 4827.00    1.17162   1.20598    0.163
 4828.00    1.19966   1.20229    0.164
 4829.00    1.19993   1.19786    0.163
 4830.00    1.19749   1.19737    0.161
 4831.00    1.19961   1.19574    0.161
 4832.00    1.20201   1.19401    0.160
 4833.00    1.20155   1.19144    0.159
 4834.00    1.20108   1.18916    0.159
 4835.00    1.21416   1.18843    0.162
 4836.00    1.22690   1.18627    0.166
 4837.00    1.23090   1.18325    0.167
 4838.00    1.23153   1.18164    0.168
 4839.00    1.18614   1.18036    0.162
 4840.00    1.14375   1.17598    0.157
 4841.00    1.12836   1.17218    0.157
 4842.00    1.11900   1.17042    0.158
 4843.00    1.14973   1.16644    0.157
 4844.00    1.17818   1.16156    0.157
 4845.00    1.19492   1.15411    0.159
 4846.00    1.21166   1.14670    0.160
 4847.00    1.22842   1.14167    0.160
 4848.00    1.23502   1.13194    0.000
 4849.00    1.20667   1.12071    0.000
 4850.00    1.18486   1.11047    0.000
 4851.00    1.18204   1.09795    0.000
 4852.00    1.17600   1.08363    0.000
 4853.00    1.16197   1.06843    0.000
 4854.00    1.15100   1.05609    0.000
 4855.00    1.14659   1.04431    0.000
 4856.00    1.14320   1.03050    0.000
 4857.00    1.14171   1.01687    0.000
 4858.00    1.14404   1.00406    0.000
 4859.00    1.15257   0.99771    0.000
 4860.00    1.14743   0.99391    0.000
 4861.00    1.12287   0.98822    0.000
 4862.00    1.11025   0.98715    0.000
 4863.00    1.11252   0.98797    0.000
 4864.00    1.12344   0.99097    0.000
 4865.00    1.14388   0.99662    0.000
 4866.00    1.15565   1.00282    0.000
 4867.00    1.15899   1.01171    0.000
 4868.00    1.15996   1.01981    0.000
 4869.00    1.15892   1.02845    0.000
 4870.00    1.15223   1.03959    0.000
 4871.00    1.14128   1.05032    0.000
 4872.00    1.14354   1.05967    0.000
 4873.00    1.15455   1.06839    0.000
 4874.00    1.15360   1.07801    0.000
 4875.00    1.14569   1.08589    0.155
 4876.00    1.14792   1.09454    0.155
 4877.00    1.15528   1.10177    0.154
 4878.00    1.14770   1.10484    0.154
 4879.00    1.13357   1.11074    0.154
 4880.00    1.16173   1.11515    0.154
 4881.00    1.20578   1.11789    0.153
 4882.00    1.21957   1.12042    0.154
 4883.00    1.22371   1.11968    0.156
 4884.00    1.21369   1.12387    0.156
 4885.00    1.19989   1.12768    0.157
 4886.00    1.19798   1.12900    0.155
 4887.00    1.19866   1.13244    0.153
 4888.00    1.19278   1.13251    0.154
 4889.00    1.18577   1.13956    0.154
 4890.00    1.19366   1.14892    0.153
 4891.00    1.20351   1.15216    0.152
 4892.00    1.20873   1.15982    0.153
 4893.00    1.21351   1.16651    0.154
 4894.00    1.23472   1.17337    0.154
 4895.00    1.25685   1.18288    0.155
 4896.00    1.24790   1.18552    0.155
 4897.00    1.23818   1.18979    0.154
 4898.00    1.22093   1.19797    0.153
 4899.00    1.20407   1.20069    0.152
 4900.00    1.19646   1.20158    0.152
 4901.00    1.18956   1.20156    0.151
 4902.00    1.19195   1.20137    0.151
 4903.00    1.19316   1.20350    0.150
 4904.00    1.18414   1.20105    0.151
 4905.00    1.17684   1.19617    0.151
 4906.00    1.18058   1.19398    0.152
 4907.00    1.18248   1.18942    0.152
 4908.00    1.17510   1.18467    0.153
 4909.00    1.16678   1.18076    0.153
 4910.00    1.15467   1.17482    0.153
 4911.00    1.15083   1.17007    0.152
 4912.00    1.17491   1.16480    0.152
 4913.00    1.19249   1.15820    0.152
 4914.00    1.19158   1.15319    0.154
 4915.00    1.19269   1.14700    0.155
 4916.00    1.19871   1.14076    0.154
 4917.00    1.19448   1.13673    0.152
 4918.00    1.16874   1.13405    0.149
 4919.00    1.15071   1.13358    0.148
 4920.00    1.14677   1.13334    0.148
 4921.00    1.15043   1.13223    0.149
 4922.00    1.16624   1.13299    0.151
 4923.00    1.18202   1.13820    0.152
 4924.00    1.19777   1.14281    0.153
 4925.00    1.20116   1.14585    0.154
 4926.00    1.18931   1.15210    0.153
 4927.00    1.18496   1.15674    0.153
 4928.00    1.18875   1.16155    0.153
 4929.00    1.18359   1.16745    0.152
 4930.00    1.16986   1.16718    0.151
 4931.00    1.16185   1.16948    0.150
 4932.00    1.15870   1.17552    0.149
 4933.00    1.16737   1.17659    0.150
 4934.00    1.18483   1.17749    0.152
 4935.00    1.16961   1.17694    0.152
 4936.00    1.13303   1.17658    0.149
 4937.00    1.13592   1.18228    0.150
 4938.00    1.16137   1.18500    0.153
 4939.00    1.17482   1.18465    0.154
 4940.00    1.18228   1.18968    0.000
 4941.00    1.19500   1.19488    0.000
 4942.00    1.20997   1.19749    0.000
 4943.00    1.20736   1.20031    0.000
 4944.00    1.19826   1.20404    0.000
 4945.00    1.20238   1.20920    0.000
 4946.00    1.21065   1.21143    0.000
 4947.00    1.22957   1.21130    0.000
 4948.00    1.25127   1.21340    0.000
 4949.00    1.22240   1.21346    0.000
 4950.00    1.18275   1.21107    0.000
 4951.00    1.18487   1.20756    0.000
 4952.00    1.19403   1.20570    0.000
 4953.00    1.18616   1.20505    0.000
 4954.00    1.17612   1.19607    0.000
 4955.00    1.16514   1.19023    0.000
 4956.00    1.15407   1.19192    0.000
 4957.00    1.15969   1.18832    0.000
 4958.00    1.16618   1.18472    0.000
 4959.00    1.17743   1.18027    0.000
 4960.00    1.18847   1.17869    0.000
 4961.00    1.17575   1.18192    0.000
 4962.00    1.16409   1.17653    0.000
 4963.00    1.17520   1.17437    0.000
 4964.00    1.18657   1.17845    0.000
 4965.00    1.20127   1.17802    0.000
 4966.00    1.21374   1.17893    0.000
 4967.00    1.20769   1.17688    0.000
 4968.00    1.20016   1.17616    0.000
 4969.00    1.18343   1.17939    0.000
 4970.00    1.16976   1.17592    0.000
 4971.00    1.17109   1.17366    0.000
 4972.00    1.17647   1.17248    0.000
 4973.00    1.19801   1.16860    0.000
 4974.00    1.21008   1.16646    0.000
 4975.00    1.19083   1.16032    0.000
 4976.00    1.18251   1.15462    0.000
 4977.00    1.20471   1.15154    0.000
 4978.00    1.21765   1.14554    0.000
 4979.00    1.20847   1.13890    0.000
 4980.00    1.18647   1.13263    0.000
 4981.00    1.13801   1.13005    0.000
 4982.00    1.11148   1.12727    0.000
 4983.00    1.12434   1.12263    0.000
 4984.00    1.13370   1.12275    0.000
 4985.00    1.13753   1.12188    0.000
 4986.00    1.14878   1.12222    0.000
 4987.00    1.17024   1.12334    0.000
 4988.00    1.17726   1.12082    0.000
 4989.00    1.16673   1.12568    0.000
 4990.00    1.17169   1.12810    0.000
 4991.00    1.19325   1.12489    0.000
 4992.00    1.19641   1.12893    0.000
 4993.00    1.18221   1.12815    0.000
 4994.00    1.17182   1.12519    0.000
 4995.00    1.16461   1.12516    0.000
 4996.00    1.17128   1.11905    0.000
 4997.00    1.18814   1.11688    0.000
 4998.00    1.19206   1.11446    0.000
 4999.00    1.18766   1.10633    0.000
 5000.00    1.17245   1.10316    0.000
 5001.00    1.15115   1.09877    0.000
 5002.00    1.15206   1.09198    0.000
 5003.00    1.16383   1.08644    0.000
 5004.00    1.17215   1.08077    0.000
 5005.00    1.17901   1.07861    0.000
 5006.00    1.18422   1.07431    0.000
 5007.00    1.18883   1.06872    0.000
 5008.00    1.18661   1.06644    0.000
 5009.00    1.18228   1.06316    0.000
 5010.00    1.18094   1.06109    0.000
 5011.00    1.18036   1.05732    0.000
 5012.00    1.18164   1.05506    0.000
 5013.00    1.18331   1.05856    0.000
 5014.00    1.14640   1.05723    0.000
 5015.00    1.10317   1.05572    0.000
 5016.00    1.09697   1.05789    0.000
 5017.00    1.09530   1.05982    0.000
 5018.00    1.12631   1.06387    0.000
 5019.00    1.16008   1.06501    0.000
 5020.00    1.16720   1.06897    0.000
 5021.00    1.17303   1.07656    0.000
 5022.00    1.16665   1.07980    0.000
 5023.00    1.16006   1.08562    0.000
 5024.00    1.15292   1.08925    0.000
 5025.00    1.14630   1.09292    0.000
 5026.00    1.15011   1.10142    0.000
 5027.00    1.15225   1.10255    0.000
 5028.00    1.13498   1.10542    0.000
 5029.00    1.12309   1.11019    0.144
 5030.00    1.15472   1.10895    0.145
 5031.00    1.18284   1.11285    0.146
 5032.00    1.18966   1.11141    0.147
 5033.00    1.19549   1.10603    0.147
 5034.00    1.19658   1.10982    0.147
 5035.00    1.19377   1.10690    0.147
 5036.00    1.17579   1.10304    0.147
 5037.00    1.16475   1.10358    0.147
 5038.00    1.17618   1.09802    0.149
 5039.00    1.18090   1.09950    0.150
 5040.00    1.16714   1.10185    0.147
 5041.00    1.15975   1.09716    0.145
 5042.00    1.16730   1.10075    0.146
 5043.00    1.16747   1.10431    0.146
 5044.00    1.15264   1.10522    0.145
 5045.00    1.14382   1.10868    0.146
 5046.00    1.14566   1.10925    0.147
 5047.00    1.14740   1.11480    0.148
 5048.00    1.14901   1.12239    0.147
 5049.00    1.16400   1.12429    0.147
 5050.00    1.19719   1.12856    0.147
 5051.00    1.19855   1.13477    0.147
 5052.00    1.16182   1.13951    0.147
 5053.00    1.14396   1.14158    0.147
 5054.00    1.14604   1.14369    0.149
 5055.00    1.14297   1.14947    0.149
 5056.00    1.13513   1.15234    0.147
 5057.00    1.13525   1.15321    0.146
 5058.00    1.14188   1.15468    0.146
 5059.00    1.15277   1.15508    0.146
 5060.00    1.16673   1.15653    0.146
 5061.00    1.17437   1.15307    0.146
 5062.00    1.17800   1.14817    0.146
 5063.00    1.16496   1.14896    0.145
 5064.00    1.14268   1.14588    0.144
 5065.00    1.13572   1.13952    0.143
 5066.00    1.13615   1.13533    0.142
 5067.00    1.14246   1.13240    0.143
 5068.00    1.15122   1.12907    0.144
 5069.00    1.15942   1.12123    0.145
 5070.00    1.16740   1.11518    0.146
 5071.00    1.16153   1.11473    0.145
 5072.00    1.15150   1.11083    0.145
 5073.00    1.14908   1.10354    0.144
 5074.00    1.14858   1.10025    0.143
 5075.00    1.15277   1.10048    0.143
 5076.00    1.15791   1.09648    0.144
 5077.00    1.15404   1.09062    0.144
 5078.00    1.14873   1.09112    0.143
 5079.00    1.13109   1.09328    0.142
 5080.00    1.11198   1.09171    0.140
 5081.00    1.10895   1.09089    0.139
 5082.00    1.10721   1.09430    0.139
 5083.00    1.10167   1.09866    0.137
 5084.00    1.09596   1.09916    0.136
 5085.00    1.08679   1.10013    0.136
 5086.00    1.07746   1.10628    0.135
 5087.00    1.06296   1.11115    0.134
 5088.00    1.05031   1.11202    0.133
 5089.00    1.07202   1.11462    0.134
 5090.00    1.09446   1.11810    0.136
 5091.00    1.12499   1.11948    0.136
 5092.00    1.15148   1.11918    0.137
 5093.00    1.14640   1.11744    0.138
 5094.00    1.14332   1.11784    0.138
 5095.00    1.15210   1.11737    0.140
 5096.00    1.15316   1.11267    0.141
 5097.00    1.11819   1.11143    0.140
 5098.00    1.08890   1.11082    0.138
 5099.00    1.08127   1.10731    0.137
 5100.00    1.07359   1.10578    0.136
 5101.00    1.06575   1.10254    0.136
 5102.00    1.06305   1.10103    0.136
 5103.00    1.07422   1.10232    0.137
 5104.00    1.09031   1.09811    0.138
 5105.00    1.11780   1.09887    0.141
 5106.00    1.14308   1.10300    0.143
 5107.00    1.16396   1.10062    0.142
 5108.00    1.16537   1.10308    0.142
 5109.00    1.13286   1.10580    0.141
 5110.00    1.11423   1.10497    0.141
 5111.00    1.11679   1.10951    0.142
 5112.00    1.12662   1.10971    0.143
 5113.00    1.14620   1.10915    0.143
 5114.00    1.15560   1.11317    0.144
 5115.00    1.15298   1.11076    0.145
 5116.00    1.14990   1.10994    0.146
 5117.00    1.14634   1.11046    0.148
 5118.00    1.14041   1.10560    0.147
 5119.00    1.13232   1.10412    0.146
 5120.00    1.12456   1.10100    0.144
 5121.00    1.11709   1.09516    0.142
 5122.00    1.11122   1.09303    0.141
 5123.00    1.10649   1.08888    0.140
 5124.00    1.10586   1.08441    0.141
 5125.00    1.10778   1.08152    0.144
 5126.00    1.11614   1.07831    0.144
 5127.00    1.12800   1.07635    0.144
 5128.00    1.13002   1.07375    0.143
 5129.00    1.12737   1.07328    0.142
 5130.00    1.13232   1.07264    0.143
 5131.00    1.14039   1.07066    0.144
 5132.00    1.14783   1.07276    0.143
 5133.00    1.15505   1.07059    0.141
 5134.00    1.13896   1.06918    0.141
 5135.00    1.11600   1.07273    0.142
 5136.00    1.13256   1.06763    0.142
 5137.00    1.15878   1.06701    0.142
 5138.00    1.14511   1.07067    0.143
 5139.00    1.12356   1.06381    0.144
 5140.00    1.12417   1.06389    0.143
 5141.00    1.12820   1.06538    0.141
 5142.00    1.10651   1.05934    0.139
 5143.00    1.08188   1.06158    0.137
 5144.00    1.09061   1.06007    0.139
 5145.00    1.10189   1.05579    0.140
 5146.00    1.10573   1.06122    0.141
 5147.00    1.10927   1.05891    0.141
 5148.00    1.10265   1.05560    0.141
 5149.00    1.09655   1.06170    0.140
 5150.00    1.11649   1.06049    0.139
 5151.00    1.13491   1.05918    0.139
 5152.00    1.12722   1.06308    0.139
 5153.00    1.12204   1.06060    0.140
 5154.00    1.14349   1.06076    0.141
 5155.00    1.16201   1.06153    0.142
 5156.00    1.15853   1.05485    0.140
 5157.00    1.15510   1.05287    0.138
 5158.00    1.15194   1.04950    0.140
 5159.00    1.15084   1.03889    0.141
 5160.00    1.15908   1.03254    0.140
 5161.00    1.16214   1.02386    0.139
 5162.00    1.14586   1.01142    0.139
 5163.00    1.12700   1.00255    0.139
 5164.00    1.10007   0.99169    0.138
 5165.00    1.07845   0.98060    0.138
 5166.00    1.07088   0.97076    0.139
 5167.00    1.06184   0.96089    0.140
 5168.00    1.04946   0.95573    0.140
 5169.00    1.04350   0.95040    0.140
 5170.00    1.05020   0.94432    0.141
 5171.00    1.06232   0.94377    0.141
 5172.00    1.08374   0.94445    0.141
 5173.00    1.09107   0.94438    0.141
 5174.00    1.07721   0.94594    0.140
 5175.00    1.07929   0.95047    0.140
 5176.00    1.10241   0.95559    0.141
 5177.00    1.10843   0.95564    0.141
 5178.00    1.09455   0.95908    0.139
 5179.00    1.06670   0.96796    0.137
 5180.00    1.02453   0.97032    0.135
 5181.00    1.00505   0.97332    0.134
 5182.00    1.00611   0.97934    0.135
 5183.00    1.01487   0.98267    0.136
 5184.00    1.02978   0.98966    0.138
 5185.00    1.04257   0.99248    0.138
 5186.00    1.05385   0.99319    0.138
 5187.00    1.08156   1.00343    0.139
 5188.00    1.11936   1.00691    0.141
 5189.00    1.11856   1.00666    0.142
 5190.00    1.09700   1.01668    0.000
 5191.00    1.10960   1.02146    0.000
 5192.00    1.13814   1.02299    0.000
 5193.00    1.15031   1.02945    0.000
 5194.00    1.15588   1.03223    0.000
 5195.00    1.15618   1.03566    0.000
 5196.00    1.15466   1.03815    0.000
 5197.00    1.15054   1.03724    0.000
 5198.00    1.14567   1.04028    0.000
 5199.00    1.14281   1.03985    0.000
 5200.00    1.14043   1.03736    0.000
 5201.00    1.15896   1.03972    0.000
 5202.00    1.18151   1.03756    0.000
 5203.00    1.16085   1.03579    0.000
 5204.00    1.13373   1.03810    0.000
 5205.00    1.11783   1.03662    0.000
 5206.00    1.10316   1.03749    0.000
 5207.00    1.10856   1.03999    0.000
 5208.00    1.11541   1.04119    0.000
 5209.00    1.12766   1.04479    0.000
 5210.00    1.14011   1.04681    0.000
 5211.00    1.14109   1.05047    0.138
 5212.00    1.14191   1.05717    0.137
 5213.00    1.13903   1.05987    0.136
 5214.00    1.13608   1.06330    0.135
 5215.00    1.13198   1.06940    0.136
 5216.00    1.12791   1.07255    0.137
 5217.00    1.12406   1.07421    0.137
 5218.00    1.12119   1.07611    0.137
 5219.00    1.12539   1.07878    0.138
 5220.00    1.13168   1.07810    0.139
 5221.00    1.14955   1.07517    0.138
 5222.00    1.16372   1.07841    0.137
 5223.00    1.16140   1.07818    0.138
 5224.00    1.15939   1.07378    0.139
 5225.00    1.15850   1.07737    0.139
 5226.00    1.15433   1.07731    0.138
 5227.00    1.14016   1.07481    0.137
 5228.00    1.12375   1.07979    0.135
 5229.00    1.10150   1.08039    0.135
 5230.00    1.09577   1.08251    0.135
 5231.00    1.12700   1.08938    0.136
 5232.00    1.15004   1.09046    0.136
 5233.00    1.15719   1.09597    0.136
 5234.00    1.15881   1.10299    0.135
 5235.00    1.15108   1.10462    0.134
 5236.00    1.15204   1.11163    0.133
 5237.00    1.16591   1.11667    0.135
 5238.00    1.17417   1.11760    0.136
 5239.00    1.17513   1.12402    0.136
 5240.00    1.17120   1.12566    0.135
 5241.00    1.16167   1.12317    0.134
 5242.00    1.15781   1.12714    0.134
 5243.00    1.15967   1.12774    0.136
 5244.00    1.15005   1.12374    0.136
 5245.00    1.13019   1.12402    0.137
 5246.00    1.12723   1.12284    0.136
 5247.00    1.13754   1.11970    0.135
 5248.00    1.14400   1.11780    0.136
 5249.00    1.14777   1.11347    0.138
 5250.00    1.15540   1.11175    0.139
 5251.00    1.16537   1.11003    0.139
 5252.00    1.15684   1.10369    0.138
 5253.00    1.13853   1.10173    0.137
 5254.00    1.14288   1.09854    0.137
 5255.00    1.15764   1.09027    0.138
 5256.00    1.16560   1.08601    0.138
 5257.00    1.17087   1.07966    0.138
 5258.00    1.16258   1.07155    0.139
 5259.00    1.14972   1.06569    0.139
 5260.00    1.15841   1.05449    0.140
 5261.00    1.17320   1.04743    0.140
 5262.00    1.15969   1.04396    0.141
 5263.00    1.13958   1.03047    0.142
 5264.00    1.12455   1.02289    0.142
 5265.00    1.11048   1.02395    0.143
 5266.00    1.08542   1.01636    0.143
 5267.00    1.05876   1.01231    0.143
 5268.00    1.06200   1.01628    0.143
 5269.00    1.06838   1.01456    0.143
 5270.00    1.09161   1.01705    0.143
 5271.00    1.11598   1.02497    0.142
 5272.00    1.12486   1.02896    0.142
 5273.00    1.13322   1.03824    0.142
 5274.00    1.14450   1.04762    0.141
 5275.00    1.15509   1.05343    0.140
 5276.00    1.14387   1.06764    0.138
 5277.00    1.13399   1.07780    0.137
 5278.00    1.14472   1.08207    0.137
 5279.00    1.15368   1.09678    0.136
 5280.00    1.14539   1.10802    0.135
 5281.00    1.14022   1.11232    0.133
 5282.00    1.15694   1.12335    0.135
 5283.00    1.17275   1.13127    0.136
 5284.00    1.18361   1.13542    0.135
 5285.00    1.18783   1.14361    0.135
 5286.00    1.16316   1.14826    0.134
 5287.00    1.14944   1.15102    0.133
 5288.00    1.17493   1.15497    0.134
 5289.00    1.19500   1.15571    0.135
 5290.00    1.19883   1.15732    0.135
 5291.00    1.20168   1.15828    0.134
 5292.00    1.20199   1.15552    0.134
 5293.00    1.19706   1.15621    0.134
 5294.00    1.18060   1.15694    0.135
 5295.00    1.16787   1.15367    0.136
 5296.00    1.16226   1.15349    0.135
 5297.00    1.15640   1.15423    0.134
 5298.00    1.15014   1.15296    0.133
 5299.00    1.15557   1.15461    0.133
 5300.00    1.17807   1.15662    0.133
 5301.00    1.19600   1.15730    0.134
 5302.00    1.20807   1.16067    0.134
 5303.00    1.21522   1.16420    0.134
 5304.00    1.21680   1.16636    0.134
 5305.00    1.21090   1.17019    0.134
 5306.00    1.19753   1.17327    0.133
 5307.00    1.21731   1.17464    0.133
 5308.00    1.26625   1.17776    0.134
 5309.00    1.26812   1.17943    0.135
 5310.00    1.23353   1.17786    0.137
 5311.00    1.20295   1.17820    0.138
 5312.00    1.17511   1.17736    0.138
 5313.00    1.16379   1.17316    0.138
 5314.00    1.16235   1.17065    0.138
 5315.00    1.16067   1.16581    0.138
 5316.00    1.15885   1.15912    0.137
 5317.00    1.16671   1.15568    0.136
 5318.00    1.17895   1.14794    0.133
 5319.00    1.17431   1.13873    0.133
 5320.00    1.16311   1.13529    0.133
 5321.00    1.14808   1.12778    0.132
 5322.00    1.13179   1.11845    0.130
 5323.00    1.12605   1.11545    0.130
 5324.00    1.12324   1.10985    0.130
 5325.00    1.12610   1.10358    0.131
 5326.00    1.13026   1.10263    0.132
 5327.00    1.12770   1.09959    0.132
 5328.00    1.12392   1.09709    0.131
 5329.00    1.13071   1.09912    0.131
 5330.00    1.13900   1.09908    0.131
 5331.00    1.15533   1.09930    0.130
 5332.00    1.17248   1.10353    0.128
 5333.00    1.16454   1.10586    0.129
 5334.00    1.15498   1.10756    0.130
 5335.00    1.13611   1.11308    0.129
 5336.00    1.11705   1.11584    0.128
 5337.00    1.13167   1.11708    0.127
 5338.00    1.14584   1.12347    0.127
 5339.00    1.14688   1.12638    0.127
 5340.00    1.14881   1.12660    0.128
 5341.00    1.16359   1.13282    0.128
 5342.00    1.17604   1.13638    0.128
 5343.00    1.16670   1.13754    0.128
 5344.00    1.15832   1.14334    0.128
 5345.00    1.15648   1.14698    0.127
 5346.00    1.15536   1.15028    0.127
 5347.00    1.15797   1.15653    0.128
 5348.00    1.16078   1.16034    0.128
 5349.00    1.16436   1.16488    0.127
 5350.00    1.16833   1.17085    0.127
 5351.00    1.17368   1.17486    0.128
 5352.00    1.17857   1.17900    0.128
 5353.00    1.18210   1.18271    0.128
 5354.00    1.18684   1.18600    0.127
 5355.00    1.19461   1.18806    0.128
 5356.00    1.19869   1.18813    0.128
 5357.00    1.19479   1.18928    0.127
 5358.00    1.18372   1.18778    0.127
 5359.00    1.15917   1.18453    0.128
 5360.00    1.14993   1.18360    0.128
 5361.00    1.16578   1.17852    0.128
 5362.00    1.17539   1.17253    0.128
 5363.00    1.17599   1.17079    0.129
 5364.00    1.16924   1.16508    0.129
 5365.00    1.15319   1.15868    0.129
 5366.00    1.14398   1.15734    0.129
 5367.00    1.14239   1.15300    0.130
 5368.00    1.14239   1.14816   -2.000
 5369.00    1.14395   1.14870   -2.000
 5370.00    1.14885   1.14726   -2.000
 5371.00    1.15666   1.14493   -2.000
 5372.00    1.16819   1.14765   -2.000
 5373.00    1.18256   1.14875   -2.000
 5374.00    1.18793   1.14812   -2.000
 5375.00    1.18724   1.15217   -2.000
 5376.00    1.17916   1.15445   -2.000
 5377.00    1.16673   1.15402   -2.000
 5378.00    1.16644   1.15754   -2.000
 5379.00    1.17238   1.15886   -2.000
 5380.00    1.17350   1.15737   -2.000
 5381.00    1.17248   1.15904   -2.000
 5382.00    1.17704   1.15781   -2.000
 5383.00    1.18374   1.15494    0.130
 5384.00    1.18790   1.15459    0.129
 5385.00    1.19124   1.15032    0.127
 5386.00    1.17127   1.14637    0.126
 5387.00    1.14497   1.14424    0.125
 5388.00    1.14510   1.13707    0.125
 5389.00    1.15111   1.13265    0.125
 5390.00    1.15461   1.13005    0.125
 5391.00    1.15766   1.12160    0.125
 5392.00    1.14225   1.11705    0.125
 5393.00    1.12432   1.11428    0.124
 5394.00    1.11890   1.10610    0.124
 5395.00    1.11469   1.10233    0.124
 5396.00    1.12567   1.09975    0.125
 5397.00    1.13757   1.09289    0.125
 5398.00    1.13126   1.09047    0.125
 5399.00    1.12456   1.08867    0.124
 5400.00    1.13137   1.08397    0.124
 5401.00    1.13784   1.08334    0.125
 5402.00    1.13549   1.08273    0.124
 5403.00    1.13227   1.08057    0.124
 5404.00    1.11712   1.08252    0.124
 5405.00    1.10506   1.08383    0.124
 5406.00    1.12076   1.08410    0.125
 5407.00    1.13405   1.08876    0.126
 5408.00    1.13129   1.09210    0.125
 5409.00    1.12964   1.09421    0.124
 5410.00    1.13370   1.10121    0.123
 5411.00    1.13707   1.10584    0.123
 5412.00    1.13764   1.10842    0.123
 5413.00    1.14140   1.11632    0.124
 5414.00    1.15613   1.12073    0.125
 5415.00    1.16386   1.12275    0.125
 5416.00    1.15132   1.12999    0.123
 5417.00    1.14398   1.13178    0.123
 5418.00    1.14946   1.13222    0.124
 5419.00    1.14849   1.13819    0.124
 5420.00    1.13380   1.13676    0.123
 5421.00    1.12743   1.13550    0.123
 5422.00    1.13645   1.13965    0.122
 5423.00    1.14238   1.13544    0.122
 5424.00    1.14331   1.13344    0.124
 5425.00    1.14148   1.13617    0.125
 5426.00    1.13576   1.13076    0.124
 5427.00    1.13769   1.12955    0.123
 5428.00    1.14916   1.13166    0.122
 5429.00    1.15297   1.12670    0.121
 5430.00    1.14836   1.12735    0.123
 5431.00    1.14527   1.12962    0.123
 5432.00    1.14364   1.12649    0.122
 5433.00    1.14538   1.12928    0.122
 5434.00    1.14999   1.13169    0.121
 5435.00    1.16023   1.13034    0.121
 5436.00    1.17470   1.13467    0.121
 5437.00    1.17644   1.13676    0.121
 5438.00    1.16976   1.13620    0.120
 5439.00    1.17297   1.14041    0.120
 5440.00    1.18190   1.14109    0.121
 5441.00    1.17746   1.14026    0.120
 5442.00    1.16626   1.14329    0.119
 5443.00    1.16245   1.14196    0.119
 5444.00    1.16186   1.14029    0.118
 5445.00    1.16150   1.14186    0.118
 5446.00    1.16123   1.13902    0.119
 5447.00    1.16057   1.13706    0.119
 5448.00    1.15977   1.13736    0.120
 5449.00    1.15954   1.13393    0.120
 5450.00    1.15947   1.13267    0.120
 5451.00    1.15513   1.13229    0.120
 5452.00    1.14987   1.12920    0.119
 5453.00    1.14115   1.12917    0.120
 5454.00    1.13184   1.12847    0.120
 5455.00    1.13494   1.12622    0.121
 5456.00    1.13968   1.12732    0.121
 5457.00    1.14821   1.12634    0.121
 5458.00    1.15710   1.12482    0.120
 5459.00    1.16236   1.12642    0.121
 5460.00    1.16742   1.12521    0.121
 5461.00    1.16665   1.12377    0.121
 5462.00    1.16569   1.12499    0.121
 5463.00    1.15956   1.12357    0.121
 5464.00    1.15374   1.12158    0.120
 5465.00    1.15526   1.12174    0.121
 5466.00    1.15699   1.12012    0.122
 5467.00    1.16146   1.11725    0.121
 5468.00    1.16537   1.11624    0.121
 5469.00    1.16444   1.11449    0.121
 5470.00    1.16380   1.11109    0.122
 5471.00    1.16510   1.10955    0.121
 5472.00    1.16428   1.10794    0.120
 5473.00    1.15285   1.10493    0.120
 5474.00    1.14293   1.10399    0.120
 5475.00    1.13914   1.10288    0.120
 5476.00    1.13806   1.10132    0.121
 5477.00    1.14607   1.10187    0.122
 5478.00    1.15055   1.10150   -2.000
 5479.00    1.14500   1.10187   -2.000
 5480.00    1.14059   1.10412   -2.000
 5481.00    1.13895   1.10441   -2.000
 5482.00    1.14405   1.10639   -2.000
 5483.00    1.16329   1.10975   -2.000
 5484.00    1.17801   1.11026   -2.000
 5485.00    1.18453   1.11287   -2.000
 5486.00    1.19055   1.11639   -2.000
 5487.00    1.19581   1.11668   -2.000
 5488.00    1.17786   1.11883   -2.000
 5489.00    1.12748   1.12170   -2.000
 5490.00    1.09843   1.12154   -2.000
 5491.00    1.09559   1.12242   -2.000
 5492.00    1.09998   1.12426   -2.000
 5493.00    1.11221   1.12367   -2.000
 5494.00    1.13176   1.12291   -2.000
 5495.00    1.15832   1.12372   -2.000
 5496.00    1.16628   1.12290   -2.000
 5497.00    1.15856   1.12048   -2.000
 5498.00    1.15090   1.12059   -2.000
 5499.00    1.14329   1.11977   -2.000
 5500.00    1.14438   1.11612   -2.000
 5501.00    1.15114   1.11604   -2.000
 5502.00    1.14834   1.11547    0.116
 5503.00    1.14009   1.11134    0.117
 5504.00    1.13963   1.11165    0.117
 5505.00    1.14304   1.11163    0.117
 5506.00    1.15127   1.10802    0.117
 5507.00    1.16156   1.10916    0.118
 5508.00    1.15050   1.10990    0.117
 5509.00    1.13157   1.10769    0.117
 5510.00    1.13061   1.10976    0.118
 5511.00    1.13525   1.11128    0.119
 5512.00    1.12434   1.11081    0.118
 5513.00    1.10939   1.11340    0.116
 5514.00    1.10863   1.11540    0.116
 5515.00    1.11088   1.11633    0.117
 5516.00    1.12523   1.11859    0.118
 5517.00    1.14160   1.12050    0.119
 5518.00    1.13851   1.12200    0.119
 5519.00    1.13296   1.12307    0.120
 5520.00    1.14329   1.12439    0.119
 5521.00    1.15502   1.12574    0.118
 5522.00    1.14848   1.12529    0.117
 5523.00    1.14099   1.12590    0.116
 5524.00    1.14179   1.12698    0.116
 5525.00    1.14272   1.12542    0.116
 5526.00    1.14119   1.12568    0.116
 5527.00    1.13977   1.12692    0.115
 5528.00    1.14053   1.12517    0.115
 5529.00    1.14181   1.12564    0.116
 5530.00    1.14943   1.12762    0.116
 5531.00    1.15579   1.12642    0.116
 5532.00    1.15162   1.12753    0.116
 5533.00    1.14882   1.13043    0.115
 5534.00    1.15454   1.13003    0.116
 5535.00    1.16042   1.13186    0.116
 5536.00    1.16713   1.13541    0.115
 5537.00    1.17017   1.13557    0.115
 5538.00    1.15867   1.13792    0.115
 5539.00    1.14677   1.14158    0.130
 5540.00    1.13354   1.14187    0.306
 5541.00    1.12685   1.14440   -1.000
 5542.00    1.13840   1.14759   -1.000
 5543.00    1.14744   1.14765   -1.000
 5544.00    1.15049   1.14993   -1.000
 5545.00    1.15244   1.15215   -1.000
 5546.00    1.15210   1.15179   -1.000
 5547.00    1.14910   1.15338    0.629
 5548.00    1.14130   1.15426    0.166
 5549.00    1.14090   1.15340    0.114
 5550.00    1.15210   1.15394    0.115
 5551.00    1.15630   1.15322    0.115
 5552.00    1.15089   1.15193    0.116
 5553.00    1.14269   1.15130    0.116
 5554.00    1.13111   1.14897    0.115
 5555.00    1.12858   1.14743    0.115
 5556.00    1.13572   1.14588    0.115
 5557.00    1.14178   1.14216    0.115
 5558.00    1.14683   1.14070    0.115
 5559.00    1.14175   1.13884    0.115
 5560.00    1.12825   1.13415    0.115
 5561.00    1.12050   1.13309    0.114
 5562.00    1.11695   1.13181    0.114
 5563.00    1.11465   1.12662    0.114
 5564.00    1.11316   1.12619    0.114
 5565.00    1.12027   1.12631    0.113
 5566.00    1.13220   1.12105    0.113
 5567.00    1.13801   1.12115    0.112
 5568.00    1.14084   1.12309    0.112
 5569.00    1.14315   1.11801    0.113
 5570.00    1.14523   1.11819    0.113
 5571.00    1.14811   1.12159    0.113
 5572.00    1.15128   1.11668    0.113
 5573.00    1.14580   1.11623    0.113
 5574.00    1.13766   1.11999    0.113
 5575.00    1.12904   1.11503    0.112
 5576.00    1.12029   1.11330    0.111
 5577.00    1.11766   1.11612    0.111
 5578.00    1.11630   1.11093    0.112
 5579.00    1.12343   1.10771    0.112
 5580.00    1.13193   1.10879    0.111
 5581.00    1.13217   1.10362    0.112
 5582.00    1.13140   1.09937    0.113
 5583.00    1.12622   1.09885    0.113
 5584.00    1.12067   1.09448    0.113
 5585.00    1.11373   1.09020    0.112
 5586.00    1.10672   1.08902    0.112
 5587.00    1.09400   1.08648    0.112
 5588.00    1.08138   1.08317    0.112
 5589.00    1.07990   1.08245    0.112
 5590.00    1.07888   1.08241    0.112
 5591.00    1.08671   1.08068    0.113
 5592.00    1.09341   1.08106    0.114
 5593.00    1.08694   1.08347    0.114
 5594.00    1.08221   1.08341    0.114
 5595.00    1.09145   1.08499    0.115
 5596.00    1.09976   1.08916    0.115
 5597.00    1.10248   1.09052    0.116
 5598.00    1.10435   1.09308    0.116
 5599.00    1.10219   1.09798    0.117
 5600.00    1.10098   1.10022    0.118
 5601.00    1.10353   1.10340    0.117
 5602.00    1.10710   1.10792    0.117
 5603.00    1.11400   1.11017    0.116
 5604.00    1.11807   1.11340    0.116
 5605.00    1.11440   1.11658    0.115
 5606.00    1.11561   1.11772    0.114
 5607.00    1.12831   1.12035    0.113
 5608.00    1.13944   1.12163    0.113
 5609.00    1.14741   1.12076    0.113
 5610.00    1.15033   1.12235    0.112
 5611.00    1.14434   1.12193    0.111
 5612.00    1.13674   1.11893    0.111
 5613.00    1.12665   1.11959    0.111
 5614.00    1.11768   1.11839    0.111
 5615.00    1.11022   1.11408    0.110
 5616.00    1.10466   1.11436    0.110
 5617.00    1.10137   1.11366    0.110
 5618.00    1.09721   1.10924    0.110
 5619.00    1.09215   1.10975    0.110
 5620.00    1.08921   1.11041    0.109
 5621.00    1.08822   1.10687    0.109
 5622.00    1.09107   1.10781    0.108
 5623.00    1.09706   1.10996    0.109
 5624.00    1.10126   1.10765    0.109
 5625.00    1.10416   1.10864    0.109
 5626.00    1.10819   1.11168    0.109
 5627.00    1.11295   1.11041    0.108
 5628.00    1.11652   1.11083    0.108
 5629.00    1.11944   1.11383    0.108
 5630.00    1.11270   1.11315    0.109
 5631.00    1.10132   1.11258    0.110
 5632.00    1.09829   1.11472    0.109
 5633.00    1.09874   1.11440    0.109
 5634.00    1.10341   1.11288    0.109
 5635.00    1.10957   1.11392    0.109
 5636.00    1.10813   1.11395    0.109
 5637.00    1.10442   1.11203    0.109
 5638.00    1.10774   1.11223    0.110
 5639.00    1.11281   1.11264    0.110
 5640.00    1.11161   1.11095    0.110
 5641.00    1.10913   1.11081    0.110
 5642.00    1.10148   1.11135    0.109
 5643.00    1.09300   1.11005    0.110
 5644.00    1.09302   1.10996    0.109
 5645.00    1.09404   1.11010    0.109
 5646.00    1.10326   1.10875    0.108
 5647.00    1.11313   1.10887    0.108
 5648.00    1.11385   1.10813    0.108
 5649.00    1.11415   1.10602    0.109
 5650.00    1.10695   1.10642    0.108
 5651.00    1.09950   1.10487    0.108
 5652.00    1.08474   1.10158    0.108
 5653.00    1.07093   1.10234    0.108
 5654.00    1.07467   1.10086    0.108
 5655.00    1.07880   1.09674    0.108
 5656.00    1.08723   1.09798    0.108
 5657.00    1.09391   1.09774    0.109
 5658.00    1.08707   1.09386    0.108
 5659.00    1.08127   1.09565    0.108
 5660.00    1.08158   1.09741    0.107
 5661.00    1.08135   1.09500    0.106
 5662.00    1.07862   1.09727    0.106
 5663.00    1.07710   1.10090    0.107
 5664.00    1.08016   1.10061    0.107
 5665.00    1.08274   1.10312    0.108
 5666.00    1.08381   1.10762    0.107
 5667.00    1.08706   1.10918    0.106
 5668.00    1.09620   1.11160    0.106
 5669.00    1.10187   1.11562    0.106
 5670.00    1.09955   1.11802    0.106
 5671.00    1.09883   1.12002    0.106
 5672.00    1.10132   1.12249    0.108
 5673.00    1.10123   1.12448    0.109
 5674.00    1.09669   1.12581    0.109
 5675.00    1.09839   1.12641    0.110
 5676.00    1.10961   1.12710    0.110
 5677.00    1.11760   1.12776    0.110
 5678.00    1.12129   1.12694    0.111
 5679.00    1.11679   1.12618    0.111
 5680.00    1.10264   1.12644    0.110
 5681.00    1.09544   1.12515    0.110
 5682.00    1.09544   1.12347    0.109
 5683.00    1.09458   1.12367    0.109
 5684.00    1.09293   1.12278    0.109
 5685.00    1.09153   1.12083    0.109
 5686.00    1.09032   1.12111    0.108
 5687.00    1.09387   1.12098    0.108
 5688.00    1.10079   1.11903    0.108
 5689.00    1.10213   1.11908    0.107
 5690.00    1.09998   1.11936    0.106
 5691.00    1.09951   1.11730    0.106
 5692.00    1.09995   1.11646    0.106
 5693.00    1.10190   1.11639    0.106
 5694.00    1.10456   1.11399    0.106
 5695.00    1.10616   1.11183    0.107
 5696.00    1.10733   1.11067    0.108
 5697.00    1.10988   1.10806    0.109
 5698.00    1.11292   1.10487    0.109
 5699.00    1.11056   1.10236    0.109
 5700.00    1.10662   1.10002    0.109
 5701.00    1.09857   1.09704    0.108
 5702.00    1.08951   1.09363    0.107
 5703.00    1.08166   1.09221    0.107
 5704.00    1.07406   1.09105    0.107
 5705.00    1.06968   1.08783    0.106
 5706.00    1.06579   1.08779    0.105
 5707.00    1.06521   1.08973    0.105
 5708.00    1.06501   1.08789    0.105
 5709.00    1.07307   1.08931    0.106
 5710.00    1.08176   1.09458    0.106
 5711.00    1.09125   1.09480    0.105
 5712.00    1.10077   1.09730    0.104
 5713.00    1.10650   1.10503    0.105
 5714.00    1.11213   1.10711    0.106
 5715.00    1.11479   1.10990    0.106
 5716.00    1.11756   1.11853    0.107
 5717.00    1.12224   1.12158    0.107
 5718.00    1.12652   1.12371    0.107
 5719.00    1.12663   1.13160    0.107
 5720.00    1.12725   1.13470    0.107
 5721.00    1.13167   1.13550    0.107
 5722.00    1.13446   1.14152    0.107
 5723.00    1.12788   1.14416    0.107
 5724.00    1.12346   1.14356    0.106
 5725.00    1.12885   1.14728    0.106
 5726.00    1.13404   1.14943    0.106
 5727.00    1.13848   1.14799    0.107
 5728.00    1.13918   1.14960    0.107
 5729.00    1.12827   1.15139    0.107
 5730.00    1.12003   1.14990    0.107
 5731.00    1.11883   1.14996    0.107
 5732.00    1.11848   1.15138    0.106
 5733.00    1.12003   1.15040    0.105
 5734.00    1.12334   1.14956    0.105
 5735.00    1.13008   1.15038    0.104
 5736.00    1.13768   1.14997    0.104
 5737.00    1.14672   1.14875    0.106
 5738.00    1.14963   1.14874    0.106
 5739.00    1.14333   1.14856    0.104
 5740.00    1.13993   1.14732    0.000
 5741.00    1.14035   1.14637    0.000
 5742.00    1.13866   1.14601    0.000
 5743.00    1.13454   1.14496    0.000
 5744.00    1.13055   1.14324    0.000
 5745.00    1.12669   1.14246    0.000
 5746.00    1.12779   1.14175    0.000
 5747.00    1.13337   1.13963    0.000
 5748.00    1.13623   1.13850    0.000
 5749.00    1.13690   1.13828    0.000
 5750.00    1.13649   1.13620    0.000
 5751.00    1.13530   1.13503    0.000
 5752.00    1.13512   1.13546    0.000
 5753.00    1.13555   1.13378    0.000
 5754.00    1.12848   1.13294    0.000
 5755.00    1.11737   1.13417    0.000
 5756.00    1.11448   1.13303    0.000
 5757.00    1.11542   1.13271    0.000
 5758.00    1.12443   1.13475    0.000
 5759.00    1.13667   1.13407    0.000
 5760.00    1.13972   1.13413    0.000
 5761.00    1.13962   1.13679    0.000
 5762.00    1.13312   1.13626    0.000
 5763.00    1.12477   1.13624    0.000
 5764.00    1.12161   1.13906    0.000
 5765.00    1.11969   1.13822    0.000
 5766.00    1.12214   1.13746    0.000
 5767.00    1.12544   1.13978    0.000
 5768.00    1.12469   1.13816    0.000
 5769.00    1.12335   1.13605    0.000
 5770.00    1.11690   1.13739    0.000
 5771.00    1.10989   1.13474    0.000
 5772.00    1.10949   1.13089    0.000
 5773.00    1.10956   1.13120    0.000
 5774.00    1.11782   1.12790    0.000
 5775.00    1.12639   1.12249    0.000
 5776.00    1.13661   1.12216    0.000
 5777.00    1.14631   1.11924    0.000
 5778.00    1.13677   1.11304    0.000
 5779.00    1.12711   1.11262    0.000
 5780.00    1.11530   1.11146    0.000
 5781.00    1.10416   1.10579    0.000
 5782.00    1.09976   1.10572    0.000
 5783.00    1.09612   1.10728    0.000
 5784.00    1.09807   1.10348    0.000
 5785.00    1.10093   1.10379    0.000
 5786.00    1.10890   1.10816    0.000
 5787.00    1.11573   1.10704    0.000
 5788.00    1.11750   1.10744    0.000
 5789.00    1.11749   1.11371    0.000
 5790.00    1.11096   1.11527    0.000
 5791.00    1.10464   1.11535   -2.000
 5792.00    1.09896   1.12203   -2.000
 5793.00    1.09402   1.12560   -2.000
 5794.00    1.09102   1.12509   -2.000
 5795.00    1.09134   1.13071   -2.000
 5796.00    1.09908   1.13526   -2.000
 5797.00    1.10469   1.13431   -2.000
 5798.00    1.10617   1.13795   -2.000
 5799.00    1.11062   1.14248   -2.000
 5800.00    1.12009   1.14145   -2.000
 5801.00    1.12807   1.14300   -2.000
 5802.00    1.13382   1.14681   -2.000
 5803.00    1.13658   1.14607   -2.000
 5804.00    1.13543   1.14612   -2.000
 5805.00    1.13318   1.14896   -2.000
 5806.00    1.12969   1.14859   -2.000
 5807.00    1.12916   1.14797   -2.000
 5808.00    1.13161   1.15017   -2.000
 5809.00    1.13925   1.15017   -2.000
 5810.00    1.15152   1.14953   -2.000
 5811.00    1.15635   1.15153    0.000
 5812.00    1.15533   1.15190    0.000
 5813.00    1.15036   1.15149    0.000
 5814.00    1.14266   1.15361    0.000
 5815.00    1.13798   1.15444    0.000
 5816.00    1.13511   1.15432    0.000
 5817.00    1.13223   1.15647    0.000
 5818.00    1.12935   1.15767    0.000
 5819.00    1.12300   1.15765    0.000
 5820.00    1.11506   1.15966    0.000
 5821.00    1.11890   1.16103    0.000
 5822.00    1.12739   1.16087    0.000
 5823.00    1.13918   1.16250    0.000
 5824.00    1.15207   1.16376    0.000
 5825.00    1.15311   1.16319    0.000
 5826.00    1.15079   1.16432    0.000
 5827.00    1.15223   1.16537    0.000
 5828.00    1.15454   1.16419    0.000
 5829.00    1.15386   1.16474    0.000
 5830.00    1.15263   1.16572    0.000
 5831.00    1.14904   1.16398    0.000
 5832.00    1.14511   1.16376    0.000
 5833.00    1.13942   1.16478    0.000
 5834.00    1.13356   1.16272    0.000
 5835.00    1.13572   1.16153    0.000
 5836.00    1.13842   1.16242    0.000
 5837.00    1.13282   1.16029    0.000
 5838.00    1.12694   1.15800    0.000
 5839.00    1.11977   1.15836    0.000
 5840.00    1.11327   1.15609    0.000
 5841.00    1.12809   1.15263    0.000
 5842.00    1.14187   1.15210    0.000
 5843.00    1.14010   1.14964    0.000
 5844.00    1.13734   1.14507    0.000
 5845.00    1.12492   1.14345    0.000
 5846.00    1.11470   1.14081    0.000
 5847.00    1.11993   1.13553    0.000
 5848.00    1.12442   1.13324    0.000
 5849.00    1.12486   1.13076    0.000
 5850.00    1.12241   1.12524    0.000
 5851.00    1.10744   1.12277    0.000
 5852.00    1.09560   1.12122    0.000
 5853.00    1.09493   1.11630    0.000
 5854.00    1.09461   1.11407    0.000
 5855.00    1.09533   1.11409    0.000
 5856.00    1.09718   1.11061    0.000
 5857.00    1.10190   1.10884    0.000
 5858.00    1.10600   1.11059    0.000
 5859.00    1.10874   1.10911    0.000
 5860.00    1.10863   1.10767    0.000
 5861.00    1.10313   1.11058    0.000
 5862.00    1.09577   1.11121    0.000
 5863.00    1.08531   1.10984    0.000
 5864.00    1.08012   1.11268    0.000
 5865.00    1.08261   1.11475    0.000
 5866.00    1.08958   1.11323    0.000
 5867.00    1.10232   1.11455    0.000
 5868.00    1.11637   1.11687    0.000
 5869.00    1.13190   1.11523    0.000
 5870.00    1.13526   1.11394    0.000
 5871.00    1.12649   1.11474    0.000
 5872.00    1.11995   1.11276    0.000
 5873.00    1.11536   1.10842    0.000
 5874.00    1.11444   1.10626    0.000
 5875.00    1.11635   1.10362    0.000
 5876.00    1.11142   1.09582    0.000
 5877.00    1.10183   1.08909    0.000
 5878.00    1.09950   1.08597    0.000
 5879.00    1.10150   1.07621    0.000
 5880.00    1.09727   1.06454    0.000
 5881.00    1.08980   1.06067    0.000
 5882.00    1.07808   1.05049    0.000
 5883.00    1.06446   1.03452    0.000
 5884.00    1.05263   1.03031    0.000
 5885.00    1.04150   1.02270    0.000
 5886.00    1.03173   1.00489    0.000
 5887.00    1.02242   1.00067    0.000
 5888.00    1.01101   0.99856    0.000
 5889.00    0.99902   0.98282    0.000
 5890.00    0.98814   0.97899    0.000
 5891.00    0.97751   0.98404    0.000
 5892.00    0.97531   0.97411    0.000
 5893.00    0.97463   0.97110    0.000
 5894.00    0.98526   0.98280    0.000
 5895.00    0.99747   0.98090    0.000
 5896.00    1.00619   0.97901    0.000
 5897.00    1.01456   0.99466    0.000
 5898.00    1.02751   1.00036    0.000
 5899.00    1.04076   0.99947    0.000
 5900.00    1.04718   1.01522    0.000
 5901.00    1.05338   1.02636    0.101
 5902.00    1.05632   1.02714    0.100
 5903.00    1.05938   1.03940    0.100
 5904.00    1.06579   1.05131    0.100
 5905.00    1.07183   1.05317    0.100
 5906.00    1.07270   1.06081    0.100
 5907.00    1.07365   1.07124    0.100
 5908.00    1.07534   1.07431    0.099
 5909.00    1.07699   1.07761    0.099
 5910.00    1.07839   1.08436    0.098
 5911.00    1.07893   1.08775    0.097
 5912.00    1.07491   1.08878    0.098
 5913.00    1.07120   1.09225    0.098
 5914.00    1.06878   1.09520    0.098
 5915.00    1.06641   1.09561    0.097
 5916.00    1.06424   1.09703    0.097
 5917.00    1.06433   1.09920    0.096
 5918.00    1.07110   1.09980    0.097
 5919.00    1.07821   1.10019    0.098
 5920.00    1.08616   1.10146    0.098
 5921.00    1.09206   1.10229    0.098
 5922.00    1.09351   1.10244    0.098
 5923.00    1.09120   1.10340    0.098
 5924.00    1.08183   1.10371    0.098
 5925.00    1.07350   1.10340    0.098
 5926.00    1.06686   1.10503    0.098
 5927.00    1.06485   1.10508    0.098
 5928.00    1.06949   1.10401    0.098
 5929.00    1.07469   1.10606    0.099
 5930.00    1.08060   1.10605    0.099
 5931.00    1.08302   1.10425    0.099
 5932.00    1.08157   1.10626    0.099
 5933.00    1.07897   1.10676    0.099
 5934.00    1.07524   1.10487    0.100
 5935.00    1.07308   1.10633    0.099
 5936.00    1.07227   1.10728    0.098
 5937.00    1.07353   1.10568    0.098
 5938.00    1.07636   1.10604    0.098
 5939.00    1.07618   1.10698    0.098
 5940.00    1.07398   1.10594    0.098
 5941.00    1.07364   1.10591    0.098
 5942.00    1.07441   1.10673    0.097
 5943.00    1.07516   1.10547    0.097
 5944.00    1.07589   1.10509    0.097
 5945.00    1.07391   1.10601    0.097
 5946.00    1.07073   1.10474    0.097
 5947.00    1.07144   1.10437    0.098
 5948.00    1.07363   1.10532    0.098
 5949.00    1.07247   1.10393    0.098
 5950.00    1.07024   1.10395    0.097
 5951.00    1.06577   1.10573    0.096
 5952.00    1.06070   1.10447    0.096
 5953.00    1.06230   1.10435    0.097
 5954.00    1.06539   1.10739    0.098
 5955.00    1.07690   1.10685    0.098
 5956.00    1.08990   1.10597    0.098
 5957.00    1.09499   1.10987    0.098
 5958.00    1.09901   1.11089    0.098
 5959.00    1.09751   1.10931    0.098
 5960.00    1.09547   1.11287    0.098
 5961.00    1.09915   1.11555    0.099
 5962.00    1.10317   1.11378    0.099
 5963.00    1.10437   1.11560    0.099
 5964.00    1.10544   1.11891    0.098
 5965.00    1.09589   1.11762    0.098
 5966.00    1.08659   1.11739    0.098
 5967.00    1.08342   1.12008    0.098
 5968.00    1.08081   1.11909    0.098
 5969.00    1.08552   1.11736    0.098
 5970.00    1.09028   1.11913    0.099
 5971.00    1.09549   1.11802    0.098
 5972.00    1.09952   1.11522    0.097
 5973.00    1.09583   1.11588    0.097
 5974.00    1.09236   1.11431    0.097
 5975.00    1.09004   1.11126    0.097
 5976.00    1.08585   1.11145    0.097
 5977.00    1.07388   1.10983    0.095
 5978.00    1.06421   1.10680    0.095
 5979.00    1.06237   1.10690    0.096
 5980.00    1.06120   1.10605    0.096
 5981.00    1.06198   1.10302    0.096
 5982.00    1.06197   1.10296    0.096
 5983.00    1.06002   1.10360    0.095
 5984.00    1.05837   1.10102    0.094
 5985.00    1.05737   1.10080    0.095
 5986.00    1.05902   1.10272    0.095
 5987.00    1.06556   1.10073    0.095
 5988.00    1.07122   1.10014    0.096
 5989.00    1.07547   1.10245    0.096
 5990.00    1.07726   1.10107    0.096
 5991.00    1.07558   1.10014    0.096
 5992.00    1.07634   1.10187    0.096
 5993.00    1.08015   1.10117    0.097
 5994.00    1.08421   1.10019    0.097
 5995.00    1.08855   1.10047    0.097
 5996.00    1.08654   1.10000    0.097
 5997.00    1.07840   1.09913    0.097
 5998.00    1.07086   1.09780    0.097
 5999.00    1.06384   1.09699    0.096
 6000.00    1.05786   1.09660    0.096
 6001.00    1.05267   1.09495    0.097
 6002.00    1.04947   1.09331    0.096
 6003.00    1.04759   1.09242    0.095
 6004.00    1.04351   1.09161    0.095
 6005.00    1.03814   1.09011    0.095
 6006.00    1.03625   1.08814    0.095
 6007.00    1.03610   1.08794    0.095
 6008.00    1.03617   1.08754    0.095
 6009.00    1.03633   1.08522    0.094
 6010.00    1.04076   1.08473    0.094
 6011.00    1.04679   1.08533    0.095
 6012.00    1.05545   1.08433    0.096
 6013.00    1.06495   1.08329    0.096
 6014.00    1.06803   1.08362    0.096
 6015.00    1.06941   1.08497    0.097
 6016.00    1.06683   1.08464    0.097
 6017.00    1.06338   1.08440    0.097
 6018.00    1.06214   1.08761    0.097
 6019.00    1.06129   1.08833    0.097
 6020.00    1.05982   1.08751    0.097
 6021.00    1.05828   1.09173    0.097
 6022.00    1.05810   1.09459    0.097
 6023.00    1.05805   1.09397    0.097
 6024.00    1.05853   1.09729    0.096
 6025.00    1.05905   1.10195    0.096
 6026.00    1.06854   1.10279    0.097
 6027.00    1.07817   1.10441    0.097
 6028.00    1.08201   1.10936    0.097
 6029.00    1.08561   1.11198    0.097
 6030.00    1.08359   1.11245    0.096
 6031.00    1.08189   1.11639    0.095
 6032.00    1.08433   1.11966    0.096
 6033.00    1.08643   1.11997    0.097
 6034.00    1.08572   1.12250    0.096
 6035.00    1.08386   1.12508    0.095
 6036.00    1.07473   1.12581    0.095
 6037.00    1.06700   1.12745    0.094
 6038.00    1.06628   1.12886    0.094
 6039.00    1.06743   1.12926    0.094
 6040.00    1.07618   1.13057    0.095
 6041.00    1.08314   1.13141    0.095
 6042.00    1.08407   1.13073    0.095
 6043.00    1.08308   1.13139    0.095
 6044.00    1.07669   1.13251    0.095
 6045.00    1.07135   1.13101    0.095
 6046.00    1.06855   1.13023    0.094
 6047.00    1.06670   1.13146    0.094
 6048.00    1.06682   1.13000    0.094
 6049.00    1.06796   1.12803    0.094
 6050.00    1.07095   1.12897    0.095
 6051.00    1.07266   1.12812    0.096
 6052.00    1.07233   1.12536    0.096
 6053.00    1.07152   1.12552    0.096
 6054.00    1.07005   1.12568    0.095
 6055.00    1.07063   1.12260    0.096
 6056.00    1.07373   1.12173    0.096
 6057.00    1.07588   1.12328    0.096
 6058.00    1.07699   1.12078    0.096
 6059.00    1.07785   1.11884    0.096
 6060.00    1.07845   1.12152    0.096
 6061.00    1.07633   1.12102    0.096
 6062.00    1.07192   1.11865    0.095
 6063.00    1.06629   1.12094    0.095
 6064.00    1.05976   1.12214    0.095
 6065.00    1.05493   1.12003    0.094
 6066.00    1.05120   1.12140    0.094
 6067.00    1.04783   1.12395    0.094
 6068.00    1.04467   1.12160    0.094
 6069.00    1.05090   1.12112    0.094
 6070.00    1.06179   1.12449    0.094
 6071.00    1.07238   1.12210    0.094
 6072.00    1.08286   1.11923    0.094
 6073.00    1.08328   1.12248    0.094
 6074.00    1.08000   1.12178    0.094
 6075.00    1.07791   1.11710    0.094
 6076.00    1.07618   1.11741    0.094
 6077.00    1.07644   1.11780    0.095
 6078.00    1.07722   1.11357    0.095
 6079.00    1.07203   1.11131    0.095
 6080.00    1.06557   1.11187    0.095
 6081.00    1.06124   1.10931    0.095
 6082.00    1.05727   1.10574    0.094
 6083.00    1.05823   1.10522    0.095
 6084.00    1.05982   1.10431    0.096
 6085.00    1.06295   1.10135    0.095
 6086.00    1.06622   1.09998    0.095
 6087.00    1.06577   1.10032    0.095
 6088.00    1.06513   1.09921    0.095
 6089.00    1.06075   1.09683    0.095
 6090.00    1.05639   1.09670    0.095
 6091.00    1.05887   1.09777    0.094
 6092.00    1.06138   1.09541    0.093
 6093.00    1.06435   1.09393    0.093
 6094.00    1.06691   1.09680    0.092
 6095.00    1.06433   1.09496    0.093
 6096.00    1.06247   1.09081    0.094
 6097.00    1.06651   1.09422    0.094
 6098.00    1.06981   1.09548    0.095
 6099.00    1.06849   1.09149    0.095
 6100.00    1.06568   1.09297    0.095
 6101.00    1.05564   1.09512    0.094
 6102.00    1.04711   1.09237    0.093
 6103.00    1.04455   1.09289    0.093
 6104.00    1.04441   1.09554    0.093
 6105.00    1.05227   1.09317    0.094
 6106.00    1.05984   1.09258    0.095
 6107.00    1.06663   1.09673    0.095
 6108.00    1.07318   1.09523    0.095
 6109.00    1.07918   1.09183    0.095
 6110.00    1.08329   1.09553    0.095
 6111.00    1.08351   1.09673    0.095
 6112.00    1.08388   1.09288    0.096
 6113.00    1.08453   1.09403    0.096
 6114.00    1.08230   1.09521    0.096
 6115.00    1.07557   1.09050    0.095
 6116.00    1.06924   1.09012    0.094
 6117.00    1.06347   1.09301    0.093
 6118.00    1.06091   1.08889    0.093
 6119.00    1.06222   1.08540    0.094
 6120.00    1.06120   1.08814    0.094
 6121.00    1.05770   1.08636    0.093
 6122.00    1.05550   1.08094    0.094
 6123.00    1.05450   1.08227    0.094
 6124.00    1.05524   1.08307    0.094
 6125.00    1.05742   1.07765    0.093
 6126.00    1.06036   1.07723    0.093
 6127.00    1.06386   1.07888    0.093
 6128.00    1.06340   1.07441    0.092
 6129.00    1.06040   1.07261    0.092
 6130.00    1.05388   1.07343    0.092
 6131.00    1.04539   1.07090    0.093
 6132.00    1.03766   1.07025    0.093
 6133.00    1.03031   1.07120    0.093
 6134.00    1.02549   1.06860    0.094
 6135.00    1.02172   1.06721    0.094
 6136.00    1.02409   1.06974    0.095
 6137.00    1.02868   1.06877    0.096
 6138.00    1.03562   1.06683    0.096
 6139.00    1.04328   1.06960    0.096
 6140.00    1.04836   1.06962    0.095
 6141.00    1.05277   1.06723    0.094
 6142.00    1.05541   1.06963    0.094
 6143.00    1.05769   1.07100    0.094
 6144.00    1.06173   1.06818    0.094
 6145.00    1.06605   1.06888    0.094
 6146.00    1.06776   1.07243    0.094
 6147.00    1.06915   1.06963    0.093
 6148.00    1.06158   1.06556    0.093
 6149.00    1.05326   1.06791    0.092
 6150.00    1.04937   1.06696    0.093
 6151.00    1.04570   1.06098    0.093
 6152.00    1.04406   1.05974    0.093
 6153.00    1.04244   1.05905    0.093
 6154.00    1.04011   1.05269    0.093
 6155.00    1.03776   1.04790    0.093
 6156.00    1.03496   1.04707    0.093
 6157.00    1.03196   1.04335    0.093
 6158.00    1.02653   1.03774    0.094
 6159.00    1.02112   1.03518    0.094
 6160.00    1.01580   1.03378    0.094
 6161.00    1.01076   1.03060    0.093
 6162.00    1.00745   1.02637    0.093
 6163.00    1.00319   1.02479    0.093
 6164.00    0.99442   1.02597    0.093
 6165.00    0.98813   1.02416    0.094
 6166.00    0.99143   1.02132    0.094
 6167.00    0.99541   1.02449    0.094
 6168.00    1.00164   1.02741    0.093
 6169.00    1.00643   1.02439    0.093
 6170.00    1.00730   1.02649    0.093
 6171.00    1.00822   1.03396    0.093
 6172.00    1.00924   1.03323    0.093
 6173.00    1.01030   1.03133    0.093
 6174.00    1.01141   1.03877    0.093
 6175.00    1.00938   1.04253    0.092
 6176.00    1.00180   1.03894    0.091
 6177.00    0.99227   1.04230    0.091
 6178.00    0.97975   1.04875    0.091
 6179.00    0.97293   1.04686    0.091
 6180.00    0.97383   1.04538    0.091
 6181.00    0.97901   1.04985    0.091
 6182.00    0.98929   1.05087    0.091
 6183.00    0.99762   1.04812    0.091
 6184.00    1.00390   1.04813    0.091
 6185.00    1.00896   1.04996    0.092
 6186.00    1.01289   1.04963    0.093
 6187.00    1.01179   1.04766    0.093
 6188.00    1.00657   1.04798    0.093
 6189.00    1.00151   1.04938    0.093
 6190.00    0.99656   1.04857    0.093
 6191.00    0.99451   1.04745    0.093
 6192.00    0.99430   1.04846    0.093
 6193.00    0.98841   1.04953    0.093
 6194.00    0.97937   1.04834    0.093
 6195.00    0.95752   1.04883    0.095
 6196.00    0.92953   1.05143   -2.000
 6197.00    0.92989   1.05109   -2.000
 6198.00    0.94201   1.05073   -2.000
 6199.00    0.97733   1.05272   -2.000
 6200.00    1.02087   1.05332   -2.000
 6201.00    1.05306   1.05301   -2.000
 6202.00    1.08184   1.05287   -2.000
 6203.00    1.07823   1.05199   -2.000
 6204.00    1.06657   1.05161   -2.000
 6205.00    1.05710   1.05125   -2.000
 6206.00    1.04806   1.04866   -2.000
 6207.00    1.04645   1.04642   -2.000
 6208.00    1.04600   1.04594    0.094
 6209.00    1.03602   1.04313    0.093
 6210.00    1.02493   1.03951    0.092
 6211.00    1.01340   1.03855    0.091
 6212.00    1.00183   1.03588    0.090
 6213.00    0.99319   1.03111    0.090
 6214.00    0.98467   1.02964    0.090
 6215.00    0.98486   1.02870    0.091
 6216.00    0.98527   1.02380    0.092
 6217.00    0.99217   1.02081    0.092
 6218.00    0.99915   1.02175    0.091
 6219.00    1.00757   1.01880    0.092
 6220.00    1.01501   1.01487    0.093
 6221.00    1.01170   1.01640    0.093
 6222.00    1.00818   1.01572    0.092
 6223.00    1.00303   1.01087    0.092
 6224.00    0.99951   1.01140    0.092
 6225.00    1.00557   1.01363    0.092
 6226.00    1.00953   1.00914    0.093
 6227.00    1.00378   1.00743    0.093
 6228.00    0.99787   1.01156    0.093
 6229.00    0.99135   1.00928    0.093
 6230.00    0.98729   1.00549    0.093
 6231.00    0.99101   1.00912    0.092
 6232.00    0.99373   1.00903    0.091
 6233.00    0.99378   1.00329    0.091
 6234.00    0.99265   1.00529    0.090
 6235.00    0.98878   1.00794    0.090
 6236.00    0.98621   1.00161    0.090
 6237.00    0.98622   1.00144    0.090
 6238.00    0.98629   1.00601    0.090
 6239.00    0.98649   1.00086    0.090
 6240.00    0.98721   0.99800    0.090
 6241.00    0.98871   1.00248    0.090
 6242.00    0.98918   0.99987    0.089
 6243.00    0.98827   0.99486    0.090
 6244.00    0.98783   0.99789    0.090
 6245.00    0.98793   0.99814    0.090
 6246.00    0.98960   0.99277    0.091
 6247.00    0.99292   0.99374    0.091
 6248.00    0.99390   0.99569    0.092
 6249.00    0.99275   0.99195    0.092
 6250.00    0.98997   0.99156    0.092
 6251.00    0.98588   0.99341    0.091
 6252.00    0.98420   0.99197    0.091
 6253.00    0.98423   0.99249    0.093
 6254.00    0.98061   0.99352    0.093
 6255.00    0.97471   0.99275    0.092
 6256.00    0.97015   0.99524    0.092
 6257.00    0.96633   0.99722    0.091
 6258.00    0.96458   0.99619    0.092
 6259.00    0.96380   0.99927    0.094
 6260.00    0.96985   1.00366    0.098
 6261.00    0.97867   1.00266    0.104
 6262.00    0.99577   1.00420    0.107
 6263.00    1.01574   1.01083    0.109
 6264.00    1.03032   1.01176    0.107
 6265.00    1.04333   1.01130    0.105
 6266.00    1.03957   1.01725    0.101
 6267.00    1.03175   1.02042    0.096
 6268.00    1.02049   1.01920    0.093
 6269.00    1.00855   1.02258    0.090
 6270.00    1.00508   1.02694    0.091
 6271.00    1.00291   1.02665    0.091
 6272.00    1.00276   1.02753    0.090
 6273.00    1.00284   1.03078    0.090
 6274.00    1.00827   1.03194    0.091
 6275.00    1.01410   1.03245    0.092
 6276.00    1.01445   1.03398    0.092
 6277.00    1.01459   1.03528    0.092
 6278.00    1.01072   1.03583    0.092
 6279.00    1.00697   1.03664    0.093
 6280.00    1.00876   1.03778    0.000
 6281.00    1.01059   1.03855    0.000
 6282.00    1.01316   1.03900    0.000
 6283.00    1.01580   1.03868    0.000
 6284.00    1.01935   1.03924    0.000
 6285.00    1.02307   1.04026    0.000
 6286.00    1.02814   1.03939    0.000
 6287.00    1.03251   1.03909    0.000
 6288.00    1.03293   1.03948    0.000
 6289.00    1.03203   1.03850    0.000
 6290.00    1.02513   1.03764    0.000
 6291.00    1.01890   1.03753    0.000
 6292.00    1.01519   1.03692    0.000
 6293.00    1.01131   1.03526    0.000
 6294.00    1.00691   1.03384    0.000
 6295.00    1.00368   1.03365    0.000
 6296.00    1.00358   1.03302    0.000
 6297.00    1.00230   1.03137    0.000
 6298.00    0.99833   1.03011    0.000
 6299.00    0.99628   1.03029    0.000
 6300.00    0.99795   1.03008    0.000
 6301.00    1.00107   1.02796    0.000
 6302.00    1.00666   1.02816    0.000
 6303.00    1.01090   1.02983    0.000
 6304.00    1.01309   1.02721    0.000
 6305.00    1.01430   1.02573    0.000
 6306.00    1.01421   1.02884    0.000
 6307.00    1.01268   1.02816    0.000
 6308.00    1.00946   1.02450    0.000
 6309.00    1.00676   1.02696    0.000
 6310.00    1.00458   1.02927    0.000
 6311.00    1.00179   1.02457    0.000
 6312.00    0.99845   1.02494    0.000
 6313.00    0.99504   1.02950    0.000
 6314.00    0.99156   1.02602    0.000
 6315.00    0.98798   1.02336    0.000
 6316.00    0.98433   1.02862    0.000
 6317.00    0.98681   1.02955    0.000
 6318.00    0.99305   1.02509    0.000
 6319.00    1.00070   1.02812    0.000
 6320.00    1.00911   1.03262    0.000
 6321.00    1.01048   1.02905    0.089
 6322.00    1.00857   1.02906    0.089
 6323.00    1.01038   1.03395    0.090
 6324.00    1.01369   1.03376    0.091
 6325.00    1.01577   1.03209    0.090
 6326.00    1.01744   1.03498    0.088
 6327.00    1.01731   1.03720    0.089
 6328.00    1.01666   1.03499    0.090
 6329.00    1.01595   1.03538    0.090
 6330.00    1.01523   1.03772    0.091
 6331.00    1.01323   1.03621    0.090
 6332.00    1.01098   1.03452    0.090
 6333.00    1.01187   1.03574    0.090
 6334.00    1.01321   1.03666    0.090
 6335.00    1.01599   1.03463    0.090
 6336.00    1.01894   1.03385    0.090
 6337.00    1.01338   1.03534    0.090
 6338.00    1.00722   1.03421    0.089
 6339.00    1.00279   1.03181    0.088
 6340.00    0.99842   1.03162    0.088
 6341.00    1.00046   1.03276    0.088
 6342.00    1.00247   1.03186    0.089
 6343.00    1.00222   1.03030    0.089
 6344.00    1.00222   1.03075    0.089
 6345.00    1.00609   1.03118    0.089
 6346.00    1.00972   1.02982    0.090
 6347.00    1.01102   1.02772    0.090
 6348.00    1.01256   1.02758    0.090
 6349.00    1.01575   1.02799    0.090
 6350.00    1.01849   1.02555    0.090
 6351.00    1.01878   1.02318    0.090
 6352.00    1.01793   1.02404    0.091
 6353.00    1.01204   1.02396    0.091
 6354.00    1.00660   1.02037    0.091
 6355.00    1.00274   1.01873    0.090
 6356.00    0.99853   1.02021    0.090
 6357.00    0.99323   1.01848    0.089
 6358.00    0.98843   1.01536    0.089
 6359.00    0.98490   1.01687    0.089
 6360.00    0.98246   1.01867    0.089
 6361.00    0.98248   1.01701    0.090
 6362.00    0.98420   1.01708    0.090
 6363.00    0.98924   1.01999    0.091
 6364.00    0.99405   1.02120    0.091
 6365.00    0.99849   1.02158    0.090
 6366.00    1.00273   1.02401    0.090
 6367.00    1.00670   1.02634    0.089
 6368.00    1.01079   1.02841    0.089
 6369.00    1.01503   1.03155    0.089
 6370.00    1.01710   1.03368    0.089
 6371.00    1.01669   1.03543    0.089
 6372.00    1.01594   1.03860    0.089
 6373.00    1.01486   1.04066    0.089
 6374.00    1.01440   1.04091    0.089
 6375.00    1.01450   1.04334    0.089
 6376.00    1.01284   1.04643    0.090
 6377.00    1.00981   1.04615    0.091
 6378.00    1.00380   1.04634    0.090
 6379.00    0.99574   1.04873    0.089
 6380.00    0.99532   1.04913    0.089
 6381.00    0.99952   1.04780    0.089
 6382.00    1.00709   1.04817    0.089
 6383.00    1.01645   1.04929    0.090
 6384.00    1.02159   1.04864    0.089
 6385.00    1.02481   1.04741    0.089
 6386.00    1.02517   1.04679    0.089
 6387.00    1.02440   1.04729    0.089
 6388.00    1.01838   1.04681    0.089
 6389.00    1.01059   1.04327    0.089
 6390.00    0.99938   1.04291    0.088
 6391.00    0.98721   1.04576    0.087
 6392.00    0.98449   1.04344    0.088
 6393.00    0.98398   1.03970    0.089
 6394.00    0.98629   1.04269    0.090
 6395.00    0.98913   1.04396    0.091
 6396.00    0.98928   1.03680    0.091
 6397.00    0.98903   1.03627    0.090
 6398.00    0.99038   1.04316    0.091
 6399.00    0.99191   1.04082    0.091
 6400.00    0.99894   1.03542    0.090
 6401.00    1.00635   1.03949    0.090
 6402.00    1.00549   1.04265    0.091
 6403.00    1.00436   1.03583    0.091
 6404.00    1.00275   1.03407    0.091
 6405.00    1.00129   1.04148    0.091
 6406.00    1.00452   1.04081    0.090
 6407.00    1.00769   1.03455    0.090
 6408.00    1.00993   1.03730    0.089
 6409.00    1.01165   1.04200    0.088
 6410.00    1.00849   1.03718    0.088
 6411.00    1.00553   1.03422    0.088
 6412.00    1.00402   1.04038    0.088
 6413.00    1.00209   1.04082    0.088
 6414.00    0.99787   1.03548    0.088
 6415.00    0.99360   1.03788    0.088
 6416.00    0.98916   1.04173    0.088
 6417.00    0.98613   1.03789    0.088
 6418.00    0.98816   1.03704    0.089
 6419.00    0.99021   1.04242    0.089
 6420.00    0.99235   1.04161    0.089
 6421.00    0.99416   1.03860    0.089
 6422.00    0.99514   1.04208    0.089
 6423.00    0.99703   1.04390    0.089
 6424.00    1.00092   1.04069    0.089
 6425.00    1.00436   1.04202    0.090
 6426.00    1.00695   1.04579    0.090
 6427.00    1.00782   1.04321    0.091
 6428.00    1.00583   1.04159    0.092
 6429.00    1.00240   1.04578    0.092
 6430.00    0.99686   1.04699    0.091
 6431.00    0.99456   1.04390    0.090
 6432.00    0.99643   1.04509    0.089
 6433.00    0.99805   1.04839    0.089
 6434.00    0.99939   1.04549    0.088
 6435.00    0.99813   1.04267    0.088
 6436.00    0.99426   1.04696    0.088
 6437.00    0.99309   1.04957    0.088
 6438.00    0.99427   1.04539    0.088
 6439.00    0.99881   1.04472    0.088
 6440.00    1.00594   1.04924    0.089
 6441.00    1.00875   1.04723    0.088
 6442.00    1.00864   1.04238    0.088
 6443.00    1.00641   1.04598    0.088
 6444.00    1.00292   1.04906    0.088
 6445.00    0.99641   1.04292    0.088
 6446.00    0.98833   1.04072    0.089
 6447.00    0.98308   1.04609    0.089
 6448.00    0.97910   1.04443    0.090
 6449.00    0.97635   1.04003    0.091
 6450.00    0.97408   1.04370    0.091
 6451.00    0.96555   1.04441    0.090
 6452.00    0.95496   1.03799    0.089
 6453.00    0.94603   1.03847    0.088
 6454.00    0.93754   1.04362    0.087
 6455.00    0.92780   1.04109    0.087
 6456.00    0.91777   1.03974    0.087
 6457.00    0.90849   1.04441    0.087
 6458.00    0.89935   1.04218    0.087
 6459.00    0.90572   1.03791    0.087
 6460.00    0.91425   1.04230    0.086
 6461.00    0.92803   1.04521    0.087
 6462.00    0.94234   1.04248    0.087
 6463.00    0.94848   1.04397    0.087
 6464.00    0.95410   1.04707    0.087
 6465.00    0.96546   1.04402    0.087
 6466.00    0.97699   1.04322    0.088
 6467.00    0.98801   1.04643    0.088
 6468.00    0.99856   1.04570    0.088
 6469.00    0.99578   1.04549    0.088
 6470.00    0.99351   1.04742    0.088
 6471.00    0.99831   1.04562    0.089
 6472.00    1.00362   1.04332    0.090
 6473.00    1.01359   1.04551    0.091
 6474.00    1.02149   1.04457    0.092
 6475.00    1.01537   1.04050    0.091
 6476.00    1.00834   1.04179    0.090
 6477.00    0.99650   1.04214    0.090
 6478.00    0.98597   1.03632    0.089
 6479.00    0.98094   1.03341    0.089
 6480.00    0.97643   1.03509    0.089
 6481.00    0.97373   1.03195    0.088
 6482.00    0.97309   1.02632    0.087
 6483.00    0.97849   1.02478    0.087
 6484.00    0.98426   1.02295    0.087
 6485.00    0.99097   1.01745    0.087
 6486.00    0.99539   1.01299    0.088
 6487.00    0.99486   1.01152    0.087
 6488.00    0.99143   1.00896    0.086
 6489.00    0.98256   1.00477    0.087
 6490.00    0.97531   1.00044    0.087
 6491.00    0.97070   0.99796    0.087
 6492.00    0.96450   0.99655    0.088
 6493.00    0.95599   0.99405    0.088
 6494.00    0.94852   0.99255    0.088
 6495.00    0.94234   0.99272    0.088
 6496.00    0.94228   0.99323    0.088
 6497.00    0.94904   0.99173    0.088
 6498.00    0.95684   0.99161    0.088
 6499.00    0.96567   0.99503    0.089
 6500.00    0.97318   0.99717    0.089
 6501.00    0.97954   0.99818    0.090
 6502.00    0.98502   1.00134    0.089
 6503.00    0.98984   1.00580    0.089
 6504.00    0.99554   1.00706    0.088
 6505.00    1.00185   1.00824    0.088
 6506.00    1.00266   1.01363    0.087
 6507.00    1.00025   1.01704    0.087
 6508.00    0.99682   1.01709    0.087
 6509.00    0.99287   1.02042    0.087
 6510.00    0.99185   1.02524    0.087
 6511.00    0.99213   1.02490    0.086
 6512.00    0.99479   1.02427    0.087
 6513.00    0.99835   1.02888    0.088
 6514.00    1.00176   1.03088    0.088
 6515.00    1.00512   1.02826    0.088
 6516.00    1.00869   1.03001    0.089
 6517.00    1.01233   1.03405    0.089
 6518.00    1.01635   1.03267    0.089
 6519.00    1.02046   1.03049    0.089
 6520.00    1.01920   1.03354    0.089
 6521.00    1.01699   1.03520    0.090
 6522.00    1.01189   1.03218    0.089
 6523.00    1.00640   1.03206    0.089
 6524.00    1.00041   1.03535    0.088
 6525.00    0.99437   1.03523    0.088
 6526.00    0.99114   1.03282    0.088
 6527.00    0.98809   1.03379    0.088
 6528.00    0.98815   1.03530    0.000
 6529.00    0.98832   1.03334    0.000
 6530.00    0.99264   1.03177    0.000
 6531.00    0.99705   1.03342    0.000
 6532.00    1.00347   1.03391    0.000
 6533.00    1.00939   1.03142    0.000
 6534.00    1.00871   1.03008    0.000
 6535.00    1.00804   1.02994    0.000
 6536.00    1.00753   1.02840    0.000
 6537.00    1.00789   1.02578    0.000
 6538.00    1.01409   1.02444    0.000
 6539.00    1.01970   1.02329    0.000
 6540.00    1.02234   1.02010    0.000
 6541.00    1.02279   1.01631    0.000
 6542.00    1.01423   1.01319    0.000
 6543.00    1.00775   1.01033    0.000
 6544.00    1.00840   1.00541    0.000
 6545.00    1.00965   1.00039    0.000
 6546.00    1.01259   0.99761    0.000
 6547.00    1.01560   0.99259    0.000
 6548.00    1.01880   0.98504    0.000
 6549.00    1.02068   0.98049    0.000
 6550.00    1.01974   0.97720    0.000
 6551.00    1.01692   0.96731    0.000
 6552.00    1.01066   0.95819    0.000
 6553.00    1.00426   0.95837    0.000
 6554.00    0.99763   0.95395    0.000
 6555.00    0.98878   0.94199    0.000
 6556.00    0.97680   0.93926    0.000
 6557.00    0.96794   0.94111    0.000
 6558.00    0.96293   0.92906    0.000
 6559.00    0.96024   0.91804    0.000
 6560.00    0.96008   0.92599    0.000
 6561.00    0.95971   0.92869    0.000
 6562.00    0.95913   0.91773    0.000
 6563.00    0.95992   0.91888    0.000
 6564.00    0.96188   0.92862    0.000
 6565.00    0.96056   0.92291    0.000
 6566.00    0.95677   0.91624    0.000
 6567.00    0.95746   0.92891    0.000
 6568.00    0.96110   0.93843    0.000
 6569.00    0.96336   0.93454    0.000
 6570.00    0.96483   0.93818    0.000
 6571.00    0.96757   0.94917    0.000
 6572.00    0.97095   0.95125    0.000
 6573.00    0.97323   0.95119    0.000
 6574.00    0.97503   0.96053    0.000
 6575.00    0.98138   0.96845    0.000
 6576.00    0.98942   0.96995    0.000
 6577.00    1.00074   0.97318    0.000
 6578.00    1.01309   0.97860    0.000
 6579.00    1.02626   0.98249    0.000
 6580.00    1.03965   0.98564    0.000
 6581.00    1.04759   0.98880    0.000
 6582.00    1.05436   0.99027    0.000
 6583.00    1.04848   0.99286    0.000
 6584.00    1.04042   0.99560    0.000
 6585.00    1.03197   0.99551    0.000
 6586.00    1.02346   0.99685    0.000
 6587.00    1.01352   1.00035    0.000
 6588.00    1.00346   1.00017    0.000
 6589.00    0.99424   0.99697    0.000
 6590.00    0.98507   0.99887    0.000
 6591.00    0.97642   1.00226    0.000
 6592.00    0.96787   1.00064    0.000
 6593.00    0.96830   0.99982    0.000
 6594.00    0.96900   1.00225    0.000
 6595.00    0.97602   1.00188    0.000
 6596.00    0.98300   0.99920    0.000
 6597.00    0.98949   1.00064    0.000
 6598.00    0.99606   1.00313    0.000
 6599.00    1.00334   1.00270    0.000
 6600.00    1.00883   1.00295    0.000
 6601.00    1.00303   1.00378    0.000
 6602.00    0.99728   1.00312    0.000
 6603.00    0.99182   1.00354    0.000
 6604.00    0.98651   1.00580    0.000
 6605.00    0.98176   1.00566    0.000
 6606.00    0.97812   1.00526    0.000
 6607.00    0.97820   1.00805    0.000
 6608.00    0.97875   1.00921    0.000
 6609.00    0.98065   1.00723    0.089
 6610.00    0.98148   1.00799    0.089
 6611.00    0.97975   1.01168    0.089
 6612.00    0.97987   1.01109    0.088
 6613.00    0.98382   1.00897    0.089
 6614.00    0.98709   1.01148    0.089
 6615.00    0.98912   1.01405    0.089
 6616.00    0.98998   1.01176    0.089
 6617.00    0.98896   1.01016    0.089
 6618.00    0.98964   1.01305    0.089
 6619.00    0.99269   1.01342    0.089
 6620.00    0.99428   1.01002    0.089
 6621.00    0.99407   1.00922    0.090
 6622.00    0.99300   1.01110    0.091
 6623.00    0.99101   1.00983    0.091
 6624.00    0.98769   1.00705    0.090
 6625.00    0.98311   1.00702    0.089
 6626.00    0.98135   1.00715    0.088
 6627.00    0.98195   1.00506    0.088
 6628.00    0.98220   1.00261    0.088
 6629.00    0.98219   1.00212    0.088
 6630.00    0.98056   1.00219    0.088
 6631.00    0.97788   1.00129    0.089
 6632.00    0.97411   0.99939    0.089
 6633.00    0.96971   0.99892    0.090
 6634.00    0.96752   1.00004    0.089
 6635.00    0.96642   0.99853    0.089
 6636.00    0.96866   0.99585    0.089
 6637.00    0.97232   0.99729    0.089
 6638.00    0.97092   0.99953    0.089
 6639.00    0.96766   0.99690    0.088
 6640.00    0.96740   0.99552    0.088
 6641.00    0.96808   0.99898    0.088
 6642.00    0.96498   0.99911    0.088
 6643.00    0.96091   0.99551    0.087
 6644.00    0.96551   0.99688    0.088
 6645.00    0.97194   1.00015    0.088
 6646.00    0.97621   0.99777    0.088
 6647.00    0.98013   0.99566    0.088
 6648.00    0.97762   0.99818    0.088
 6649.00    0.97431   0.99879    0.088
 6650.00    0.97407   0.99625    0.088
 6651.00    0.97410   0.99622    0.089
 6652.00    0.97227   0.99701    0.089
 6653.00    0.97034   0.99560    0.089
 6654.00    0.97087   0.99489    0.089
 6655.00    0.97143   0.99468    0.090
 6656.00    0.97130   0.99328    0.089
 6657.00    0.97081   0.99285    0.089
 6658.00    0.96276   0.99323    0.089
 6659.00    0.95502   0.99077    0.089
 6660.00    0.95100   0.98915    0.089
 6661.00    0.94739   0.99115    0.089
 6662.00    0.94708   0.99045    0.088
 6663.00    0.94702   0.98687    0.088
 6664.00    0.94845   0.98755    0.088
 6665.00    0.94997   0.99000    0.088
 6666.00    0.95196   0.98684    0.088
 6667.00    0.95461   0.98427    0.088
 6668.00    0.95980   0.98780    0.088
 6669.00    0.96424   0.98873    0.087
 6670.00    0.96618   0.98438    0.088
 6671.00    0.96741   0.98474    0.088
 6672.00    0.96664   0.98909    0.088
 6673.00    0.96730   0.98701    0.089
 6674.00    0.97133   0.98284    0.090
 6675.00    0.97325   0.98617    0.091
 6676.00    0.97083   0.98951    0.091
 6677.00    0.96725   0.98568    0.090
 6678.00    0.96162   0.98465    0.091
 6679.00    0.95876   0.98937    0.090
 6680.00    0.96022   0.98901    0.090
 6681.00    0.96162   0.98440    0.090
 6682.00    0.96294   0.98649    0.090
 6683.00    0.96546   0.99090    0.090
 6684.00    0.96945   0.98845    0.090
 6685.00    0.97282   0.98619    0.090
 6686.00    0.97550   0.98937    0.089
 6687.00    0.97663   0.99051    0.088
 6688.00    0.97628   0.98719    0.088
 6689.00    0.97415   0.98727    0.088
 6690.00    0.97057   0.99020    0.088
 6691.00    0.96787   0.98896    0.088
 6692.00    0.96582   0.98612    0.089
 6693.00    0.96234   0.98707    0.089
 6694.00    0.95794   0.98833    0.089
 6695.00    0.95359   0.98595    0.089
 6696.00    0.94927   0.98461    0.000
 6697.00    0.94505   0.98600    0.000
 6698.00    0.94088   0.98554    0.000
 6699.00    0.94305   0.98228    0.000
 6700.00    0.94791   0.98137    0.000
 6701.00    0.95562   0.98247    0.000
 6702.00    0.96437   0.98091    0.000
 6703.00    0.96411   0.97864    0.000
 6704.00    0.96110   0.97898    0.000
 6705.00    0.96073   0.97907    0.000
 6706.00    0.96102   0.97576    0.000
 6707.00    0.96256   0.97383    0.000
 6708.00    0.96436   0.97522    0.000
 6709.00    0.96667   0.97432    0.000
 6710.00    0.96906   0.97119    0.000
 6711.00    0.97187   0.97112    0.000
 6712.00    0.97472   0.97234    0.000
 6713.00    0.97701   0.96960    0.000
 6714.00    0.97925   0.96728    0.000
 6715.00    0.98446   0.96975    0.000
 6716.00    0.98981   0.97066    0.000
 6717.00    0.98241   0.96773    0.000
 6718.00    0.97483   0.96709    0.000
 6719.00    0.96691   0.96993    0.000
 6720.00    0.95905   0.96980    0.000
 6721.00    0.95248   0.96763    0.000
 6722.00    0.94658   0.96934    0.000
 6723.00    0.94834   0.97205    0.000
 6724.00    0.95111   0.97099    0.000
 6725.00    0.96193   0.96970    0.000
 6726.00    0.97195   0.97214    0.000
 6727.00    0.97720   0.97377    0.000
 6728.00    0.98145   0.97227    0.000
 6729.00    0.98093   0.97187    0.000
 6730.00    0.98045   0.97366    0.000
 6731.00    0.98013   0.97348    0.000
 6732.00    0.97813   0.97243    0.000
 6733.00    0.97068   0.97321    0.000
 6734.00    0.96330   0.97336    0.000
 6735.00    0.95613   0.97148    0.000
 6736.00    0.94962   0.97114    0.000
 6737.00    0.94466   0.97215    0.000
 6738.00    0.94265   0.97054    0.000
 6739.00    0.94662   0.96904    0.000
 6740.00    0.95084   0.97000    0.000
 6741.00    0.95551   0.96974    0.000
 6742.00    0.95558   0.96697    0.000
 6743.00    0.94858   0.96729    0.000
 6744.00    0.94422   0.96915    0.000
 6745.00    0.94342   0.96739    0.000
 6746.00    0.94104   0.96545    0.000
 6747.00    0.93675   0.96747    0.000
 6748.00    0.93413   0.96874    0.000
 6749.00    0.93326   0.96651    0.000
 6750.00    0.92992   0.96723    0.000
 6751.00    0.92431   0.96962    0.000
 6752.00    0.92364   0.96907    0.000
 6753.00    0.92701   0.96812    0.094
 6754.00    0.92895   0.97071    0.096
 6755.00    0.92986   0.97230    0.098
 6756.00    0.92707   0.97082    0.099
 6757.00    0.92195   0.97187    0.099
 6758.00    0.92973   0.97411    0.100
 6759.00    0.94461   0.97388    0.100
 6760.00    0.97707   0.97335    0.103
 6761.00    1.01795   0.97570    0.106
 6762.00    1.05162   0.97663    0.109
 6763.00    1.08231   0.97490    0.111
 6764.00    1.09137   0.97540    0.111
 6765.00    1.09277   0.97776    0.110
 6766.00    1.09720   0.97751    0.109
 6767.00    1.10254   0.97592    0.107
 6768.00    1.09334   0.97726    0.106
 6769.00    1.08054   0.97846    0.104
 6770.00    1.05853   0.97687    0.101
 6771.00    1.03467   0.97621    0.099
 6772.00    1.02508   0.97830    0.097
 6773.00    1.01774   0.97854    0.096
 6774.00    1.00405   0.97628    0.095
 6775.00    0.98963   0.97605    0.095
 6776.00    0.97203   0.97751    0.094
 6777.00    0.95418   0.97713    0.094
 6778.00    0.98041   0.97533    0.096
 6779.00    1.00857   0.97530    0.098
 6780.00    1.00522   0.97576    0.100
 6781.00    1.00123   0.97446    0.101
 6782.00    0.98273   0.97311    0.100
 6783.00    0.96564   0.97372    0.098
 6784.00    0.97393   0.97419    0.099
 6785.00    0.98181   0.97231    0.100
 6786.00    0.98513   0.97095    0.100
 6787.00    0.98804   0.97185    0.100
 6788.00    0.98783   0.97193    0.099
 6789.00    0.98905   0.97020    0.099
 6790.00    0.99863   0.97023    0.100
 6791.00    1.00539   0.97150    0.101
 6792.00    0.99916   0.97048    0.099
 6793.00    0.99581   0.96957    0.099
 6794.00    1.00338   0.97094    0.098
 6795.00    1.00544   0.97139    0.098
 6796.00    0.99010   0.96993    0.096
 6797.00    0.98159   0.97044    0.095
 6798.00    0.99138   0.97193    0.096
 6799.00    0.99834   0.97094    0.097
 6800.00    0.99877   0.97034    0.097
 6801.00    0.99626   0.97219    0.098
 6802.00    0.98789   0.97248    0.098
 6803.00    0.98111   0.97086    0.098
 6804.00    0.97708   0.97186    0.098
 6805.00    0.97295   0.97359    0.098
 6806.00    0.96865   0.97221    0.098
 6807.00    0.96354   0.97110    0.097
 6808.00    0.95733   0.97326    0.096
 6809.00    0.95548   0.97416    0.096
 6810.00    0.95873   0.97230    0.097
 6811.00    0.95958   0.97250    0.097
 6812.00    0.95794   0.97436    0.097
 6813.00    0.96280   0.97388    0.098
 6814.00    0.97357   0.97298    0.099
 6815.00    0.97504   0.97444    0.099
 6816.00    0.96901   0.97531    0.097
 6817.00    0.96690   0.97407    0.097
 6818.00    0.96757   0.97391    0.096
 6819.00    0.97463   0.97554    0.095
 6820.00    0.98566   0.97551    0.095
 6821.00    0.99315   0.97446    0.095
 6822.00    0.99871   0.97515    0.097
 6823.00    0.99902   0.97573    0.097
 6824.00    0.99686   0.97425    0.096
 6825.00    0.98924   0.97368    0.096
 6826.00    0.97940   0.97489    0.097
 6827.00    0.97803   0.97463    0.098
 6828.00    0.97960   0.97258    0.098
 6829.00    0.98557   0.97209    0.099
 6830.00    0.99283   0.97288    0.100
 6831.00    1.00231   0.97146    0.099
 6832.00    1.01232   0.96944    0.098
 6833.00    1.00850   0.96945    0.098
 6834.00    1.00196   0.96965    0.097
 6835.00    0.99504   0.96751    0.097
 6836.00    0.98806   0.96588    0.097
 6837.00    0.98801   0.96634    0.098
 6838.00    0.98874   0.96613    0.100
 6839.00    0.98305   0.96401    0.100
 6840.00    0.97688   0.96311    0.100
 6841.00    0.96186   0.96393    0.099
 6842.00    0.94650   0.96289    0.098
 6843.00    0.94108   0.96091    0.097
 6844.00    0.93625   0.96114    0.096
 6845.00    0.95229   0.96216    0.096
 6846.00    0.96752   0.96036    0.096
 6847.00    0.96897   0.95864    0.097
 6848.00    0.97030   0.96008    0.097
 6849.00    0.97029   0.96071    0.097
 6850.00    0.96990   0.95814    0.097
 6851.00    0.96660   0.95743    0.096
 6852.00    0.96350   0.95938    0.096
 6853.00    0.96153   0.95805    0.096
 6854.00    0.95951   0.95521    0.095
 6855.00    0.95727   0.95664    0.095
 6856.00    0.95257   0.95847    0.095
 6857.00    0.93878   0.95540    0.095
 6858.00    0.92641   0.95344    0.094
 6859.00    0.91847   0.95592    0.095
 6860.00    0.91536   0.95593    0.095
 6861.00    0.92498   0.95307    0.095
 6862.00    0.93379   0.95423    0.095
 6863.00    0.94079   0.95610    0.096
 6864.00    0.94333   0.95311    0.096
 6865.00    0.93713   0.95189    0.097
 6866.00    0.93449   0.95557    0.098
 6867.00    0.93791   0.95595    0.098
 6868.00    0.93950   0.95263    0.099
 6869.00    0.93836   0.95401    0.099
 6870.00    0.93842   0.95701    0.099
 6871.00    0.94006   0.95497    0.098
 6872.00    0.94313   0.95398    0.097
 6873.00    0.94787   0.95787    0.096
 6874.00    0.95089   0.95861    0.095
 6875.00    0.95216   0.95553    0.094
 6876.00    0.94940   0.95739    0.095
 6877.00    0.94301   0.96142    0.096
 6878.00    0.94535   0.96007    0.099
 6879.00    0.95462   0.95875    0.102
 6880.00    0.96295   0.96250    0.104
 6881.00    0.97063   0.96443    0.104
 6882.00    0.96891   0.96258    0.101
 6883.00    0.96144   0.96414    0.098
 6884.00    0.95851   0.96755    0.097
 6885.00    0.95802   0.96698    0.097
 6886.00    0.96002   0.96653    0.097
 6887.00    0.96318   0.96983    0.098
 6888.00    0.96089   0.97141    0.098
 6889.00    0.95642   0.97002    0.098
 6890.00    0.95474   0.97168    0.098
 6891.00    0.95402   0.97455    0.098
 6892.00    0.95359   0.97387    0.098
 6893.00    0.95324   0.97354    0.098
 6894.00    0.95366   0.97650    0.098
 6895.00    0.95426   0.97743    0.098
 6896.00    0.95367   0.97560    0.097
 6897.00    0.95286   0.97672    0.096
 6898.00    0.95516   0.97909    0.095
 6899.00    0.95792   0.97838    0.095
 6900.00    0.95493   0.97714    0.095
 6901.00    0.95131   0.97899    0.096
 6902.00    0.94927   0.97981    0.096
 6903.00    0.94735   0.97814    0.096
 6904.00    0.94696   0.97800    0.096
 6905.00    0.94663   0.97941    0.095
 6906.00    0.94826   0.97863    0.096
 6907.00    0.94981   0.97726    0.097
 6908.00    0.94801   0.97794    0.097
 6909.00    0.94589   0.97784    0.097
 6910.00    0.93862   0.97647    0.097
 6911.00    0.93210   0.97628    0.096
 6912.00    0.93322   0.97688    0.097
 6913.00    0.93343   0.97544    0.097
 6914.00    0.92716   0.97425    0.096
 6915.00    0.92244   0.97519    0.096
 6916.00    0.92637   0.97493    0.095
 6917.00    0.92945   0.97248    0.095
 6918.00    0.92874   0.97208    0.095
 6919.00    0.92791   0.97397    0.095
 6920.00    0.92664   0.97297    0.095
 6921.00    0.92612   0.97039    0.095
 6922.00    0.92781   0.97099    0.095
 6923.00    0.93004   0.97293    0.095
 6924.00    0.93363   0.97154    0.096
 6925.00    0.93339   0.96924    0.097
 6926.00    0.92462   0.97052    0.097
 6927.00    0.92271   0.97224    0.098
 6928.00    0.93400   0.97051    0.099
 6929.00    0.94014   0.96869    0.099
 6930.00    0.93759   0.97051    0.099
 6931.00    0.93867   0.97196    0.099
 6932.00    0.94507   0.96995    0.099
 6933.00    0.94848   0.96880    0.099
 6934.00    0.94803   0.97086    0.099
 6935.00    0.94753   0.97175    0.099
 6936.00    0.94697   0.96936    0.099
 6937.00    0.94612   0.96853    0.099
 6938.00    0.94498   0.97079    0.099
 6939.00    0.94469   0.97116    0.098
 6940.00    0.94518   0.96883    0.098
 6941.00    0.94174   0.96871    0.098
 6942.00    0.93525   0.97064    0.098
 6943.00    0.93450   0.96994    0.098
 6944.00    0.93769   0.96836    0.098
 6945.00    0.93268   0.96935    0.099
 6946.00    0.92271   0.97036    0.099
 6947.00    0.92026   0.96898    0.100
 6948.00    0.92176   0.96854    0.100
 6949.00    0.93698   0.97044    0.102
 6950.00    0.95847   0.97073    0.105
 6951.00    0.96830   0.96942    0.106
 6952.00    0.97356   0.97013    0.106
 6953.00    0.96582   0.97214    0.106
 6954.00    0.95374   0.97163    0.107
 6955.00    0.94919   0.97093    0.104
 6956.00    0.94676   0.97294    0.100
 6957.00    0.94241   0.97429    0.099
 6958.00    0.93762   0.97274    0.098
 6959.00    0.94582   0.97248    0.098
 6960.00    0.95644   0.97509    0.099
 6961.00    0.94991   0.97602    0.098
 6962.00    0.94092   0.97402    0.098
 6963.00    0.93585   0.97308    0.098
 6964.00    0.93118   0.97535    0.099
 6965.00    0.93925   0.97637    0.100
 6966.00    0.94817   0.97367    0.101
 6967.00    0.94222   0.97206    0.101
 6968.00    0.93580   0.97435    0.101
 6969.00    0.93314   0.97479    0.101
 6970.00    0.93054   0.97064    0.102
 6971.00    0.92990   0.96911    0.101
 6972.00    0.93003   0.97255    0.101
 6973.00    0.94162   0.97246    0.101
 6974.00    0.95024   0.96756    0.100
 6975.00    0.93031   0.96741    0.100
 6976.00    0.91295   0.97161    0.100
 6977.00    0.91350   0.97024    0.100
 6978.00    0.91472   0.96561    0.100
 6979.00    0.91961   0.96756    0.099
 6980.00    0.92287   0.97178    0.099
 6981.00    0.91912   0.96904    0.099
 6982.00    0.91888   0.96582    0.098
 6983.00    0.93111   0.96960    0.099
 6984.00    0.94080   0.97281    0.100
 6985.00    0.94295   0.96989    0.100
 6986.00    0.94442   0.96866    0.101
 6987.00    0.94422   0.97216    0.101
 6988.00    0.94078   0.97322    0.101
 6989.00    0.93028   0.97115    0.102
 6990.00    0.92653   0.97208    0.103
 6991.00    0.93560   0.97391    0.103
 6992.00    0.93829   0.97212    0.103
 6993.00    0.93043   0.97083    0.103
 6994.00    0.92803   0.97301    0.102
 6995.00    0.93358   0.97354    0.102
 6996.00    0.93681   0.97049    0.101
 6997.00    0.93710   0.96968    0.101
 6998.00    0.93689   0.97149    0.101
 6999.00    0.93612   0.97062    0.101
 7000.00    0.93273   0.96785    0.101
 7001.00    0.92674   0.96832    0.101
 7002.00    0.92161   0.96954    0.101
 7003.00    0.91723   0.96689    0.102
 7004.00    0.91788   0.96410    0.103
 7005.00    0.92241   0.96594    0.104
 7006.00    0.92076   0.96776    0.106
 7007.00    0.91492   0.96425    0.108
 7008.00    0.90938   0.96069    0.108
 7009.00    0.90401   0.96303    0.107
 7010.00    0.90528   0.96586    0.107
 7011.00    0.90999   0.96261    0.107
 7012.00    0.90798   0.95938    0.107
 7013.00    0.90296   0.96236    0.108
 7014.00    0.90281   0.96485    0.107
 7015.00    0.90455   0.96102    0.107
 7016.00    0.90035   0.95882    0.107
 7017.00    0.89419   0.96319    0.107
 7018.00    0.89777   0.96524    0.107
 7019.00    0.90404   0.96079    0.107
 7020.00    0.90807   0.95998    0.107
 7021.00    0.91159   0.96556    0.107
 7022.00    0.92098   0.96674    0.108
 7023.00    0.93143   0.96232    0.108
 7024.00    0.92837   0.96340    0.108
 7025.00    0.92343   0.96908    0.108
 7026.00    0.92546   0.96859    0.109
 7027.00    0.92817   0.96546    0.111
 7028.00    0.92896   0.96922    0.110
 7029.00    0.92964   0.97378    0.110
 7030.00    0.92201   0.97113    0.111
 7031.00    0.91420   0.96969    0.112
 7032.00    0.91760   0.97501    0.111
 7033.00    0.92089   0.97776    0.110
 7034.00    0.92110   0.97497    0.110
 7035.00    0.92117   0.97605    0.109
 7036.00    0.91933   0.98071    0.109
 7037.00    0.91798   0.98016    0.109
 7038.00    0.92112   0.97788    0.110
 7039.00    0.92317   0.98123    0.110
 7040.00    0.91791   0.98416    0.109
 7041.00    0.91620   0.98081    0.109
 7042.00    0.93308   0.97919    0.109
 7043.00    0.94809   0.98304    0.109
 7044.00    0.95518   0.98328    0.110
 7045.00    0.95880   0.97847    0.111
 7046.00    0.95036   0.97763    0.111
 7047.00    0.94423   0.97955    0.112
 7048.00    0.94484   0.97690    0.114
 7049.00    0.94547   0.97312    0.115
 7050.00    0.94614   0.97317   -2.000
 7051.00    0.94950   0.97191   -2.000
 7052.00    0.95862   0.96686   -2.000
 7053.00    0.96366   0.96436   -2.000
 7054.00    0.96106   0.96467   -2.000
 7055.00    0.96566   0.96161   -2.000
 7056.00    0.98199   0.95654   -2.000
 7057.00    0.98603   0.95527   -2.000
 7058.00    0.97250   0.95523   -2.000
 7059.00    0.97320   0.95160   -2.000
 7060.00    0.99181   0.94742   -2.000
 7061.00    0.99755   0.94718   -2.000
 7062.00    0.98900   0.94720   -2.000
 7063.00    0.99314   0.94422   -2.000
 7064.00    1.00969   0.94177   -2.000
 7065.00    1.01278   0.94244   -2.000
 7066.00    1.00425   0.94252   -2.000
 7067.00    0.99852   0.93977   -2.000
 7068.00    0.99491   0.93810   -2.000
 7069.00    0.99451   0.93940   -2.000
 7070.00    0.99625   0.93998   -2.000
 7071.00    1.02270   0.93740   -2.000
 7072.00    1.06362   0.93550   -2.000
 7073.00    1.07173   0.93675   -2.000
 7074.00    1.06313   0.93752   -2.000
 7075.00    1.04333   0.93425   -2.000
 7076.00    1.01858   0.93137   -2.000
 7077.00    1.02526   0.93236   -2.000
 7078.00    1.04386   0.93285   -2.000
 7079.00    1.04019   0.92915   -2.000
 7080.00    1.02934   0.92604   -2.000
 7081.00    1.02667   0.92618   -2.000
 7082.00    1.02620   0.92527   -2.000
 7083.00    1.01419   0.92139   -2.000
 7084.00    0.99962   0.91882   -2.000
 7085.00    0.98618   0.91868   -2.000
 7086.00    0.97292   0.91702   -2.000
 7087.00    0.98214   0.91346   -2.000
 7088.00    0.99438   0.91162   -2.000
 7089.00    0.98416   0.91186   -2.000
 7090.00    0.97180   0.91016   -2.000
 7091.00    0.96174   0.90708   -2.000
 7092.00    0.95180   0.90596   -2.000
 7093.00    0.95485   0.90706   -2.000
 7094.00    0.95814   0.90601   -2.000
 7095.00    0.95162   0.90373   -2.000
 7096.00    0.94471   0.90358   -2.000
 7097.00    0.92799   0.90501   -2.000
 7098.00    0.91189   0.90421   -2.000
 7099.00    0.90419   0.90243   -2.000
 7100.00    0.89728   0.90306   -2.000
 7101.00    0.89741   0.90488   -2.000
 7102.00    0.89796   0.90395   -2.000
 7103.00    0.90135   0.90204   -2.000
 7104.00    0.90302   0.90360   -2.000
 7105.00    0.89595   0.90522   -2.000
 7106.00    0.88928   0.90341   -2.000
 7107.00    0.88424   0.90169   -2.000
 7108.00    0.87961   0.90423   -2.000
 7109.00    0.87633   0.90523   -2.000
 7110.00    0.87327   0.90172   -2.000
 7111.00    0.87083   0.90041   -2.000
 7112.00    0.87134   0.90407   -2.000
 7113.00    0.87912   0.90436   -2.000
 7114.00    0.88531   0.89952   -2.000
 7115.00    0.88813   0.89848   -2.000
 7116.00    0.88960   0.90254   -2.000
 7117.00    0.88862   0.90220   -2.000
 7118.00    0.89406   0.89699   -2.000
 7119.00    0.90981   0.89630   -2.000
 7120.00    0.92704   0.89988   -2.000
 7121.00    0.94634   0.89907   -2.000
 7122.00    0.95390   0.89476   -2.000
 7123.00    0.94688   0.89465   -2.000
 7124.00    0.94707   0.89711   -2.000
 7125.00    0.95515   0.89603   -2.000
 7126.00    0.94247   0.89310   -2.000
 7127.00    0.90976   0.89335   -2.000
 7128.00    0.91264   0.89494   -2.000
 7129.00    0.94576   0.89421   -2.000
 7130.00    0.95618   0.89257   -2.000
 7131.00    0.94958   0.89297   -2.000
 7132.00    0.95044   0.89405   -2.000
 7133.00    0.95620   0.89420   -2.000
 7134.00    0.93454   0.89352   -2.000
 7135.00    0.89708   0.89332   -2.000
 7136.00    0.88717   0.89407   -2.000
 7137.00    0.89108   0.89562   -2.000
 7138.00    0.91523   0.89557   -2.000
 7139.00    0.94816   0.89404   -2.000
 7140.00    0.95152   0.89482   -2.000
 7141.00    0.94387   0.89820   -2.000
 7142.00    0.92594   0.89834   -2.000
 7143.00    0.90476   0.89518   -2.000
 7144.00    0.89491   0.89597   -2.000
 7145.00    0.88806   0.90067   -2.000
 7146.00    0.88483   0.90075   -2.000
 7147.00    0.88238   0.89681   -2.000
 7148.00    0.89285   0.89766   -2.000
 7149.00    0.90554   0.90257   -2.000
 7150.00    0.90473   0.90276   -2.000
 7151.00    0.90219   0.89911   -2.000
 7152.00    0.90140   0.89989   -2.000
 7153.00    0.90078   0.90410   -2.000
 7154.00    0.91410   0.90420   -2.000
 7155.00    0.92819   0.90136   -2.000
 7156.00    0.91149   0.90254   -2.000
 7157.00    0.89428   0.90575   -2.000
 7158.00    0.88988   0.90557   -2.000
 7159.00    0.88739   0.90382   -2.000
 7160.00    0.92792   0.90499   -2.000
 7161.00    0.96643   0.90707   -2.000
 7162.00    0.97941   0.90732   -2.000
 7163.00    0.99069   0.90640   -2.000
 7164.00    0.98751   0.90649   -2.000
 7165.00    0.98104   0.90770   -2.000
 7166.00    0.95367   0.90926   -2.000
 7167.00    0.93684   0.90892   -2.000
 7168.00    0.97233   0.90723   -2.000
 7169.00    0.99709   0.90767   -2.000
 7170.00    0.97868   0.91040   -2.000
 7171.00    0.95902   0.91037   -2.000
 7172.00    0.93513   0.90723   -2.000
 7173.00    0.91394   0.90701   -2.000
 7174.00    0.90035   0.91011   -2.000
 7175.00    0.90005   0.91008   -2.000
 7176.00    0.93181   0.90628   -2.000
 7177.00    0.95532   0.90545   -2.000
 7178.00    0.96166   0.90814   -2.000
 7179.00    0.95795   0.90805   -2.000
 7180.00    0.93606   0.90431   -2.000
 7181.00    0.91602   0.90323   -2.000
 7182.00    0.89892   0.90541   -2.000
 7183.00    0.88639   0.90518   -2.000
 7184.00    0.88019   0.90178   -2.000
 7185.00    0.86724   0.90081   -2.000
 7186.00    0.84605   0.90288   -2.000
 7187.00    0.84819   0.90292   -2.000
 7188.00    0.87549   0.90003   -2.000
 7189.00    0.88818   0.89908   -2.000
 7190.00    0.88697   0.90119   -2.000
 7191.00    0.88568   0.90180   -2.000
 7192.00    0.88430   0.89967   -2.000
 7193.00    0.87595   0.89883   -2.000
 7194.00    0.86245   0.90078   -2.000
 7195.00    0.86182   0.90171   -2.000
 7196.00    0.86953   0.90024   -2.000
 7197.00    0.86701   0.89965   -2.000
 7198.00    0.85869   0.90154   -2.000
 7199.00    0.87479   0.90260   -2.000
 7200.00    0.90294   0.90148   -2.000
 7201.00    0.92031   0.90110   -2.000
 7202.00    0.93307   0.90292   -2.000
 7203.00    0.92223   0.90410   -2.000
 7204.00    0.90274   0.90337   -2.000
 7205.00    0.87270   0.90322   -2.000
 7206.00    0.83940   0.90473   -2.000
 7207.00    0.83608   0.90596   -2.000
 7208.00    0.84050   0.90595   -2.000
 7209.00    0.84571   0.90619   -2.000
 7210.00    0.85108   0.90742   -2.000
 7211.00    0.84509   0.90871   -2.000
 7212.00    0.83720   0.90936   -2.000
 7213.00    0.85290   0.91008   -2.000
 7214.00    0.87155   0.91138   -2.000
 7215.00    0.87283   0.91265   -2.000
 7216.00    0.87260   0.91356   -2.000
 7217.00    0.86518   0.91487   -2.000
 7218.00    0.85739   0.91670   -2.000
