###################################################################
## OUTPUT of StarlightChains_v04.for    [Cid@UFSC - 01/Apr/2007] ##
###################################################################

## Some input info
KUG0210-078._2_28.txt                    [arq_obs]
Base.CB07.vall.4m                        [arq_base]
Masks.EmLines.NEW.gm                     [arq_masks]
StCv04.C11.config                        [arq_config]
   66                                    [N_base]
    0                                    [N_YAV_components = # of components with extra extinction!]
    0                                    [i_FitPowerLaw (1/0 = Yes/No)]
-9.99                                    [alpha_PowerLaw]
CCM                                      [red_law_option]
 1.458241                                [q_norm = A(l_norm)/A(V)]

## (Re)Sampling Parameters
 3741.00                                 [l_ini (A)]
 7218.00                                 [l_fin (A)]
    1.00                                 [dl    (A)]     (OBS: dl_cushion =    50.00 A)

## Normalization info
 4020.00                                 [l_norm (A) - for base]
 4010.00                                 [llow_norm (A) - window for f_obs]
 4060.00                                 [lupp_norm (A) - window for f_obs]
2.747205E-19                             [fobs_norm (in input units)]

## S/N
 3691.00                                 [llow_SN (A) - window for S/N]
 7268.00                                 [lupp_SN (A) - window for S/N]
   1.807                                 [S/N in S/N window]
   0.139                                 [S/N in norm. window]
   0.004                                 [S/N_err in S/N window]
   0.000                                 [S/N_err in norm. window]
  1.0000                                 [fscale_chi2]

## etc...
    -2007202                             [idum_orig]
  2188                                   [NOl_eff]
  2182                                   [Nl_eff]
     6    NSIGMA                         [Ntot_cliped & clip_method]
   349370                                [Nglobal_steps]
   7                                     [N_chains]
   7                                     [NEX0s_base = N_base in EX0s-fits]
 0   0   1        6   2.0   2.903E+01    [Clip-Bug, RC-Crash & Burn-In warning-flags, n_censored_weights, wei_nsig_threshold & wei_limit]
    11     10.770     10.393      0.377  [idt_all, wdt_TotTime, wdt_UsrTime & wdt_SysTime (sec)]

## Synthesis Results - Best model ##

 2.55030E-05                             [chi2/Nl_eff]
    86.07887                             [adev (%)]

   130.00000                             [sum-of-x (%)]
 1.47470E-17                             [Flux_tot (units of input spectrum!)]
 3.25756E-12                             [Mini_tot (???)]
 1.61086E-12                             [Mcor_tot (???)]

   0.00                                  [v0_min  (km/s)]
   0.03                                  [vd_min  (km/s)]
 2.7702                                  [AV_min  (mag)]
 0.0000                                  [YAV_min (mag)]

# j     x_j(%)      Mini_j(%)     Mcor_j(%)     age_j(yr)     Z_j      (L/M)_j    YAV?  Mstars   component_j        a/Fe...       SSP_chi2r SSP_adev(%)   SSP_AV   SSP_x(%)
  1      0.0000     0.0000E+00    0.0000E+00    1.000000E+06  0.00400  1.094E-02    0   1.0000   age020_m42            0.0000     8.4937E-06    93.5128   2.5913  1543.6300
  2      0.0000     0.0000E+00    0.0000E+00    3.160000E+06  0.00400  4.007E-02    0   0.9999   age045_m42            0.0000     8.7755E-06    94.1784   1.8787  1637.5962
  3      0.0000     0.0000E+00    0.0000E+00    5.010000E+06  0.00400  2.539E-02    0   0.9488   age055_m42            0.0000     8.6660E-06    94.1249   2.1870  1606.0692
  4      0.0000     0.0000E+00    0.0000E+00    6.610000E+06  0.00400  2.620E-02    0   0.9220   age061_m42            0.0000     8.8564E-06    94.5389   1.8056  1640.8884
  5      0.0000     0.0000E+00    0.0000E+00    1.000000E+07  0.00400  1.322E-02    0   0.8862   age070_m42            0.0000     9.0937E-06    96.7476   1.5448  1664.1802
  6      0.0000     0.0000E+00    0.0000E+00    1.445000E+07  0.00400  7.883E-03    0   0.8571   age078_m42            0.0000     8.9669E-06    96.4869   1.8654  1626.9827
  7      0.0000     0.0000E+00    0.0000E+00    2.512000E+07  0.00400  5.251E-03    0   0.8174   age090_m42            0.0000     9.1819E-06    97.2904   1.4219  1669.2568
  8      0.0000     0.0000E+00    0.0000E+00    4.000000E+07  0.00400  3.649E-03    0   0.7851   age104_m42            0.0000     9.1987E-06    96.9885   1.1944  1682.3032
  9      0.0000     0.0000E+00    0.0000E+00    5.500000E+07  0.00400  3.098E-03    0   0.7629   age110_m42            0.0000     9.1663E-06    96.0088   1.3415  1684.8627
 10      0.0000     0.0000E+00    0.0000E+00    1.015200E+08  0.00400  2.228E-03    0   0.7207   age116_m42            0.0000     9.1899E-06    95.4258   1.3615  1687.2980
 11      0.0000     0.0000E+00    0.0000E+00    2.861200E+08  0.00400  1.093E-03    0   0.6648   age125_m42            0.0000     9.3863E-06    96.4232   0.7997  1729.9923
 12      0.0000     0.0000E+00    0.0000E+00    5.088000E+08  0.00400  6.597E-04    0   0.6365   age130_m42            0.0000     9.3587E-06    95.1779   0.7865  1745.3735
 13      0.0000     0.0000E+00    0.0000E+00    1.434000E+09  0.00400  2.132E-04    0   0.5798   age139_m42            0.0000     9.2227E-06    93.8069  -0.1901  1781.7295
 14      0.0000     0.0000E+00    0.0000E+00    4.250000E+09  0.00400  5.895E-05    0   0.5377   age158_m42            0.0000     8.7375E-06    91.7568  -0.6594  1733.7429
 15      0.0000     0.0000E+00    0.0000E+00    7.500000E+09  0.00400  3.510E-05    0   0.5212   age171_m42            0.0000     8.6231E-06    90.8113  -0.8560  1727.2247
 16      0.0000     0.0000E+00    0.0000E+00    1.300000E+10  0.00400  2.005E-05    0   0.5034   age193_m42            0.0000     8.5220E-06    90.2018  -1.0000  1709.1583
 17      0.0000     0.0000E+00    0.0000E+00    1.800000E+10  0.00400  1.525E-05    0   0.4967   age213_m42            0.0000     8.5280E-06    90.7176  -1.0000  1691.1261
 18      0.0000     0.0000E+00    0.0000E+00    1.000000E+06  0.00800  1.238E-02    0   1.0000   age020_m52            0.0000     8.4914E-06    93.5303   2.5890  1546.1825
 19      0.0000     0.0000E+00    0.0000E+00    3.160000E+06  0.00800  3.074E-02    0   0.9966   age045_m52            0.0000     8.5026E-06    93.5618   2.5122  1560.0396
 20      0.0000     0.0000E+00    0.0000E+00    5.010000E+06  0.00800  2.668E-02    0   0.9443   age055_m52            0.0000     8.6396E-06    94.1912   2.2756  1589.7695
 21      0.0000     0.0000E+00    0.0000E+00    6.610000E+06  0.00800  2.136E-02    0   0.9177   age061_m52            0.0000     8.9016E-06    96.0219   1.0442  1685.3857
 22      0.0000     0.0000E+00    0.0000E+00    1.000000E+07  0.00800  1.215E-02    0   0.8827   age070_m52            0.0000     9.1203E-06    97.5608   1.7325  1656.2087
 23      0.0000     0.0000E+00    0.0000E+00    1.445000E+07  0.00800  8.717E-03    0   0.8552   age078_m52            0.0000     9.0104E-06    96.7082   1.8367  1646.1199
 24      0.0000     0.0000E+00    0.0000E+00    2.512000E+07  0.00800  5.592E-03    0   0.8162   age090_m52            0.0000     9.2251E-06    97.5493   1.4872  1687.0028
 25      0.0000     0.0000E+00    0.0000E+00    4.000000E+07  0.00800  3.896E-03    0   0.7841   age104_m52            0.0000     9.2357E-06    97.1515   1.3991  1699.1720
 26      0.0000     0.0000E+00    0.0000E+00    1.015200E+08  0.00800  2.148E-03    0   0.7226   age116_m52            0.0000     9.2218E-06    96.0552   1.3324  1698.4830
 27      0.0000     0.0000E+00    0.0000E+00    2.861200E+08  0.00800  9.925E-04    0   0.6683   age125_m52            0.0000     9.3954E-06    95.1409   0.8559  1758.4785
 28      0.0000     0.0000E+00    0.0000E+00    9.047900E+08  0.00800  3.141E-04    0   0.6138   age135_m52            0.0000     9.2277E-06    93.4123   0.0502  1831.7200
 29      0.0000     0.0000E+00    0.0000E+00    1.434000E+09  0.00800  1.719E-04    0   0.5853   age139_m52            0.0000     9.0054E-06    92.7196  -0.5481  1806.7874
 30      0.0000     0.0000E+00    0.0000E+00    2.500000E+09  0.00800  7.872E-05    0   0.5600   age150_m52            0.0000     8.6851E-06    90.2246  -0.8402  1775.8263
 31      0.0000     0.0000E+00    0.0000E+00    4.250000E+09  0.00800  4.336E-05    0   0.5426   age158_m52            0.0000     8.6042E-06    90.1316  -0.8584  1762.2583
 32      0.0000     0.0000E+00    0.0000E+00    6.250000E+09  0.00800  3.159E-05    0   0.5319   age166_m52            0.0000     8.5504E-06    89.6051  -1.0000  1733.7935
 33      0.0000     0.0000E+00    0.0000E+00    1.300000E+10  0.00800  1.361E-05    0   0.5073   age193_m52            0.0000     8.9177E-06    93.3219  -1.0000  1491.9509
 34      0.0000     0.0000E+00    0.0000E+00    1.800000E+10  0.00800  9.886E-06    0   0.4990   age213_m52            0.0000     9.0589E-06    93.1850  -1.0000  1430.5487
 35      0.0000     0.0000E+00    0.0000E+00    1.000000E+06  0.02000  1.544E-02    0   1.0000   age020_m62            0.0000     8.4856E-06    93.4895   2.5839  1550.3669
 36      0.0000     0.0000E+00    0.0000E+00    3.160000E+06  0.02000  3.762E-02    0   0.9858   age045_m62            0.0000     8.4795E-06    93.6099   2.5218  1564.6360
 37      0.0000     0.0000E+00    0.0000E+00    5.010000E+06  0.02000  3.296E-02    0   0.9342   age055_m62            0.0000     8.7117E-06    93.9421   2.1486  1624.6700
 38      0.0000     0.0000E+00    0.0000E+00    8.710000E+06  0.02000  1.154E-02    0   0.8861   age067_m62            0.0000     9.6588E-06   101.7792   1.2187  1680.2137
 39      0.0000     0.0000E+00    0.0000E+00    1.445000E+07  0.02000  7.663E-03    0   0.8472   age078_m62            0.0000     9.2598E-06    98.9493   1.3881  1687.0514
 40      0.0000     0.0000E+00    0.0000E+00    2.512000E+07  0.02000  4.532E-03    0   0.8099   age090_m62            0.0000     9.3478E-06    99.2769   1.3799  1682.0957
 41      0.0000     0.0000E+00    0.0000E+00    5.500000E+07  0.02000  2.733E-03    0   0.7595   age110_m62            0.0000     9.1928E-06    96.9289   1.3762  1691.2343
 42      0.0000     0.0000E+00    0.0000E+00    1.609000E+08  0.02000  1.369E-03    0   0.6985   age120_m62            0.0000     9.3406E-06    95.5779   1.2159  1733.6897
 43      0.0000     0.0000E+00    0.0000E+00    2.861200E+08  0.02000  9.013E-04    0   0.6714   age125_m62            0.0000     9.4908E-06    94.6755   0.9697  1777.1328
 44      0.0000     0.0000E+00    0.0000E+00    5.088000E+08  0.02000  5.028E-04    0   0.6449   age130_m62            0.0000     9.3873E-06    93.0354   0.5937  1820.2223
 45      0.0000     0.0000E+00    0.0000E+00    9.047900E+08  0.02000  2.428E-04    0   0.6179   age135_m62            0.0000     9.0375E-06    91.9422  -0.0192  1827.3563
 46      0.0000     0.0000E+00    0.0000E+00    1.434000E+09  0.02000  1.263E-04    0   0.5908   age139_m62            0.0000     8.8393E-06    91.0274  -0.4772  1810.7228
 47      0.0000     0.0000E+00    0.0000E+00    2.500000E+09  0.02000  5.985E-05    0   0.5673   age150_m62            0.0000     8.6010E-06    88.8035  -0.8653  1800.4358
 48      0.0000     0.0000E+00    0.0000E+00    4.250000E+09  0.02000  3.271E-05    0   0.5468   age158_m62            0.0000     8.5398E-06    88.4773  -1.0000  1702.8521
 49      0.0000     0.0000E+00    0.0000E+00    1.000000E+10  0.02000  1.360E-05    0   0.5167   age181_m62            0.0000     8.8728E-06    90.2269  -1.0000  1519.2302
 50      0.0000     0.0000E+00    0.0000E+00    1.800000E+10  0.02000  7.124E-06    0   0.5013   age213_m62            0.0000     9.2227E-06    90.7900  -1.0000  1400.4642
 51      0.0000     0.0000E+00    0.0000E+00    1.000000E+06  0.05000  2.592E-02    0   0.9998   age020_m72            0.0000     8.4817E-06    93.5304   2.5780  1549.8707
 52      0.0000     0.0000E+00    0.0000E+00    3.160000E+06  0.05000  4.845E-02    0   0.9577   age045_m72            0.0000     8.5452E-06    93.6186   2.4058  1584.4869
 53      0.0000     0.0000E+00    0.0000E+00    5.010000E+06  0.05000  3.072E-02    0   0.9147   age055_m72            0.0000     8.9312E-06    97.4230   1.9563  1634.3546
 54      0.0000     0.0000E+00    0.0000E+00    6.610000E+06  0.05000  1.455E-02    0   0.8877   age061_m72            0.0000     9.9412E-06   104.2108   1.2720  1685.0986
 55      0.0000     0.0000E+00    0.0000E+00    1.000000E+07  0.05000  9.074E-03    0   0.8524   age070_m72            0.0000     8.9320E-06    97.7477   2.1272  1632.7755
 56      0.0000     0.0000E+00    0.0000E+00    2.512000E+07  0.05000  4.250E-03    0   0.7902   age090_m72            0.0000     9.1391E-06    97.8969   1.8375  1658.1497
 57      0.0000     0.0000E+00    0.0000E+00    4.000000E+07  0.05000  3.087E-03    0   0.7618   age104_m72            0.0000     9.2998E-06    98.3067   1.6128  1682.2808
 58      0.0000     0.0000E+00    0.0000E+00    1.015200E+08  0.05000  1.700E-03    0   0.7096   age116_m72            0.0000     9.4078E-06    96.5870   1.3615  1724.3341
 59      0.0000     0.0000E+00    0.0000E+00    2.861200E+08  0.05000  7.384E-04    0   0.6633   age125_m72            0.0000     9.4394E-06    93.8716   0.8409  1798.0112
 60      0.0000     0.0000E+00    0.0000E+00    5.088000E+08  0.05000  3.819E-04    0   0.6372   age130_m72            0.0000     9.1792E-06    92.0634   0.3304  1837.6322
 61      0.0000     0.0000E+00    0.0000E+00    9.047900E+08  0.05000  1.676E-04    0   0.6110   age135_m72            0.0000     8.7530E-06    89.4677  -0.4001  1828.5376
 62      0.0000     0.0000E+00    0.0000E+00    1.434000E+09  0.05000  8.837E-05    0   0.5874   age139_m72            0.0000     8.6842E-06    88.6735  -0.8661  1824.2588
 63      0.0000     0.0000E+00    0.0000E+00    2.500000E+09  0.05000  4.233E-05    0   0.5598   age150_m72            0.0000     8.5338E-06    87.9879  -1.0000  1716.6412
 64      0.0000     0.0000E+00    0.0000E+00    6.250000E+09  0.05000  1.435E-05    0   0.5249   age166_m72            0.0000     9.0163E-06    90.7429  -1.0000  1463.6285
 65      0.0000     0.0000E+00    0.0000E+00    1.300000E+10  0.05000  6.513E-06    0   0.5036   age193_m72            0.0000     9.5651E-06    91.4937  -1.0000  1334.1484
 66    130.0000     1.0000E+02    1.0000E+02    1.800000E+10  0.05000  4.527E-06    0   0.4945   age213_m72            0.0000     9.9588E-06    91.9772  -1.0000  1250.5264


## Synthesis Results - Average & Chains ##

# j      x_j: min, <> & last-chain-values for 1 ...  7 chains
  1      0.0000      0.7149      0.0000      0.0000      0.0000      0.0000      0.0000      0.0000      0.0000
  2      0.0000      0.5895      0.0000      0.0000      0.0000      0.0000      0.0000      0.0000      0.0000
  3      0.0000      0.5963      0.0001      0.0000      0.0000      0.0000      0.0000      0.0000      0.0000
  4      0.0000      0.7482      0.0000      0.0000      0.0000      0.0000      0.0000      0.0000      0.0000
  5      0.0000      0.6110      0.0000      0.0000      0.0000      0.0000      0.0000      0.0000      0.0000
  6      0.0000      0.6173      0.0000      0.0000      0.0000      0.0000      0.0000      0.0000      0.0000
  7      0.0000      0.8465      0.0000      0.0000      0.0000      0.0000      0.0000      0.0000      0.0000
  8      0.0000      0.6700      0.0000      0.0000      0.0000      0.0000      0.0000      0.0000      0.0000
  9      0.0000      0.5720      0.0000      0.0000      0.0000      0.0000      0.0000      0.0000      0.0000
 10      0.0000      0.9328      0.0000      0.0000      0.0000      0.0000      0.0000      0.0000      0.0000
 11      0.0000      0.5865      0.0000      0.0000      0.0000      0.0000      0.0004      0.0000      0.0000
 12      0.0000      0.9770      0.0000      0.0000      0.0000      0.0000      0.0000      0.0000      0.0000
 13      0.0000      0.6179      0.0000      0.0000      0.0000      0.0004      0.0000      0.0000      0.0000
 14      0.0000      0.5536      0.0000      0.0000      0.0000      0.0000      0.0000      0.0000      0.0000
 15      0.0000      0.8614      0.0000      0.0000      0.0000      0.0000      0.0000      0.0000      0.0000
 16      0.0000      0.5832      0.0000      0.0000      0.0000      0.0000      0.0000      0.0000      0.0000
 17      0.0000      0.6478      0.0000      0.0000      0.0000      0.0000      0.0000      0.0000      0.0000
 18      0.0000      1.0720      0.0000      0.0000      0.0000      0.0000      0.0000      0.0000      0.0000
 19      0.0000      0.8844      0.0000      0.0000      0.0000      0.0000      0.0000      0.0000      0.0000
 20      0.0000      0.8280      0.0000      0.0000      0.0000      0.0000      0.0000      0.0000      0.0000
 21      0.0000      0.6797      0.0000      0.0000      0.0000      0.0000      0.0000      0.0000      0.0000
 22      0.0000      1.0744      0.0000      0.0000      0.0000      0.0000      0.0000      0.0000      0.0000
 23      0.0000      0.7389      0.0000      0.0000      0.0000      0.0000      0.0000      0.0000      0.0000
 24      0.0000      0.7916      0.0000      0.0000      0.0000      0.0000      0.0000      0.0000      0.0000
 25      0.0000      0.4148      0.0000      0.0002      0.0000      0.0000      0.0000      0.0000      0.0000
 26      0.0000      0.5951      0.0000      0.0000      0.0000      0.0000      0.0001      0.0000      0.0000
 27      0.0000      0.5607      0.0000      0.0000      0.0000      0.0001      0.0000      0.0000      0.0000
 28      0.0000      0.4301      0.0000      0.0000      0.0000      0.0000      0.0000      0.0000      0.0000
 29      0.0000      0.5245      0.0000      0.0012      0.0000      0.0000      0.0000      0.0002      0.0000
 30      0.0000      0.6386      0.0000      0.0000      0.0000      0.0000      0.0000      0.0000      0.0000
 31      0.0000      0.6289      0.0000      0.0000      0.0000      0.0000      0.0000      0.0000      0.0000
 32      0.0000      0.5373      0.0000      0.0000      0.0000      0.0000      0.0000      0.0000      0.0000
 33      0.0000      0.7010      0.0000      0.0000      0.0000      0.0000      0.0000      0.0000      0.0000
 34      0.0000      0.6506      0.0000      0.0000      0.0010      0.0016      0.0000      0.0007      0.0000
 35      0.0000      0.6915      0.0000      0.0000      0.0000      0.0000      0.0000      0.0000      0.0000
 36      0.0000      0.4447      0.0000      0.0000      0.0000      0.0000      0.0003      0.0000      0.0000
 37      0.0000      0.5840      0.0000      0.0000      0.0000      0.0000      0.0000      0.0000      0.0012
 38      0.0000      0.9104      0.0000      0.0000      0.0000      0.0000      0.0000      0.0000      0.0000
 39      0.0000      0.5502      0.0000      0.0000      0.0000      0.0000      0.0000      0.0000      0.0000
 40      0.0000      0.5902      0.0000      0.0000      0.0000      0.0000      0.0000      0.0000      0.0000
 41      0.0000      0.8484      0.0000      0.0000      0.0000      0.0000      0.0000      0.0000      0.0000
 42      0.0000      0.6612      0.0000      0.0000      0.0000      0.0000      0.0000      0.0000      0.0000
 43      0.0000      0.8718      0.0000      0.0000      0.0000      0.0000      0.0000      0.0000      0.0000
 44      0.0000      0.7630      0.0000      0.0027      0.0000      0.0000      0.0000      0.0000      0.0000
 45      0.0000      0.7146      0.0000      0.0000      0.0000      0.0000      0.0000      0.0000      0.0000
 46      0.0000      0.5146      0.0000      0.0000      0.0000      0.0000      0.0000      0.0000      0.0000
 47      0.0000      0.4980      0.0000      0.0034      0.0000      0.0000      0.0000      0.0000      0.0000
 48      0.0000      0.5218      0.0000      0.0000      0.0000      0.0000      0.0000      0.0000      0.0000
 49      0.0000      0.7285      0.0000      0.0033      0.0000      0.0000      0.0000      0.0000      0.0000
 50      0.0000      0.9175      0.0000      0.0000      0.0003      0.0000      0.0000      0.0000      0.0000
 51      0.0000      0.7148      0.0000      0.0000      0.0000      0.0000      0.0000      0.0000      0.0000
 52      0.0000      0.6782      0.0000      0.0000      0.0000      0.0000      0.0000      0.0000      0.0000
 53      0.0000      0.7409      0.0000      0.0000      0.0000      0.0000      0.0000      0.0000      0.0000
 54      0.0000      0.8077      0.0000      0.0000      0.0000      0.0000      0.0000      0.0000      0.0000
 55      0.0000      0.7004      0.0000      0.0000      0.0000      0.0000      0.0000      0.0000      0.0000
 56      0.0000      0.7184      0.0000      0.0000      0.0000      0.0001      0.0000      0.0005      0.0000
 57      0.0000      0.4177      0.0000      0.0000      0.0000      0.0000      0.0000      0.0000      0.0000
 58      0.0000      0.7734      0.0000      0.0000      0.0000      0.0000      0.0000      0.0000      0.0000
 59      0.0000      0.6609      0.0000      0.0000      0.0000      0.0000      0.0000      0.0000      0.0000
 60      0.0000      0.5518      0.0000      0.0000      0.0000      0.0000      0.0000      0.0000      0.0000
 61      0.0000      0.7604      0.0000      0.0000      0.0000      0.0000      0.0000      0.0000      0.0000
 62      0.0000      0.6106      0.0000      0.0000      0.0000      0.0000      0.0000      0.0000      0.0000
 63      0.0000      0.5794      0.0000      0.0000      0.0000      0.0000      0.0000      0.0000      0.0000
 64      0.0000      0.7945      0.0000      0.0000      0.0000      0.0000      0.0000      0.0000      0.0000
 65      0.0000      1.5186      0.0031      3.0774      1.7136      0.0158      0.0000      0.0000      5.1924
 66    130.0000     84.2742    129.9968    126.9118    128.2850    129.9819    129.9992    129.9986    124.8064

# j      m_j: min, <> & last-chain-values for 1 ...  7 chains
  1  0.0000E+00  6.7907E-04  0.0000E+00  0.0000E+00  0.0000E+00  0.0000E+00  0.0000E+00  0.0000E+00  0.0000E+00
  2  0.0000E+00  1.5287E-04  0.0000E+00  0.0000E+00  0.0000E+00  0.0000E+00  0.0000E+00  0.0000E+00  0.0000E+00
  3  0.0000E+00  2.3156E-04  2.3643E-08  0.0000E+00  0.0000E+00  0.0000E+00  0.0000E+00  0.0000E+00  0.0000E+00
  4  0.0000E+00  2.7361E-04  0.0000E+00  0.0000E+00  0.0000E+00  0.0000E+00  0.0000E+00  0.0000E+00  0.0000E+00
  5  0.0000E+00  4.2564E-04  0.0000E+00  0.0000E+00  0.0000E+00  0.0000E+00  0.0000E+00  0.0000E+00  0.0000E+00
  6  0.0000E+00  6.9743E-04  0.0000E+00  0.0000E+00  0.0000E+00  0.0000E+00  0.0000E+00  0.0000E+00  0.0000E+00
  7  0.0000E+00  1.3693E-03  0.0000E+00  0.0000E+00  0.0000E+00  0.0000E+00  0.0000E+00  0.0000E+00  0.0000E+00
  8  0.0000E+00  1.4981E-03  0.0000E+00  0.0000E+00  0.0000E+00  0.0000E+00  6.1032E-08  0.0000E+00  0.0000E+00
  9  0.0000E+00  1.4639E-03  0.0000E+00  0.0000E+00  0.0000E+00  0.0000E+00  0.0000E+00  0.0000E+00  0.0000E+00
 10  0.0000E+00  3.1358E-03  0.0000E+00  0.0000E+00  0.0000E+00  0.0000E+00  0.0000E+00  0.0000E+00  0.0000E+00
 11  0.0000E+00  3.7071E-03  0.0000E+00  0.0000E+00  0.0000E+00  0.0000E+00  1.6633E-06  0.0000E+00  0.0000E+00
 12  0.0000E+00  9.7955E-03  0.0000E+00  0.0000E+00  0.0000E+00  0.0000E+00  0.0000E+00  0.0000E+00  0.0000E+00
 13  0.0000E+00  1.7463E-02  0.0000E+00  0.0000E+00  0.0000E+00  8.3280E-06  0.0000E+00  0.0000E+00  0.0000E+00
 14  0.0000E+00  5.2478E-02  0.0000E+00  0.0000E+00  0.0000E+00  0.0000E+00  0.0000E+00  0.0000E+00  0.0000E+00
 15  0.0000E+00  1.3293E-01  0.0000E+00  0.0000E+00  0.0000E+00  0.0000E+00  0.0000E+00  0.0000E+00  0.0000E+00
 16  0.0000E+00  1.5217E-01  0.0000E+00  0.0000E+00  0.0000E+00  0.0000E+00  0.0000E+00  0.0000E+00  0.0000E+00
 17  0.0000E+00  2.1927E-01  0.0000E+00  0.0000E+00  0.0000E+00  0.0000E+00  0.0000E+00  0.0000E+00  0.0000E+00
 18  0.0000E+00  8.9983E-04  0.0000E+00  0.0000E+00  0.0000E+00  0.0000E+00  0.0000E+00  0.0000E+00  0.0000E+00
 19  0.0000E+00  2.9796E-04  0.0000E+00  0.0000E+00  0.0000E+00  0.0000E+00  0.0000E+00  0.0000E+00  0.0000E+00
 20  0.0000E+00  3.0455E-04  0.0000E+00  0.0000E+00  0.0000E+00  0.0000E+00  0.0000E+00  0.0000E+00  0.0000E+00
 21  0.0000E+00  3.0347E-04  0.0000E+00  0.0000E+00  0.0000E+00  0.0000E+00  0.0000E+00  0.0000E+00  0.0000E+00
 22  0.0000E+00  8.1117E-04  0.0000E+00  0.0000E+00  0.0000E+00  0.0000E+00  0.0000E+00  0.0000E+00  0.0000E+00
 23  0.0000E+00  7.5329E-04  0.0000E+00  0.0000E+00  0.0000E+00  0.0000E+00  0.0000E+00  0.0000E+00  0.0000E+00
 24  0.0000E+00  1.2007E-03  0.0000E+00  0.0000E+00  0.0000E+00  0.0000E+00  0.0000E+00  0.0000E+00  0.0000E+00
 25  0.0000E+00  8.6762E-04  0.0000E+00  2.8049E-07  0.0000E+00  0.0000E+00  0.0000E+00  0.0000E+00  0.0000E+00
 26  0.0000E+00  2.0805E-03  0.0000E+00  0.0000E+00  0.0000E+00  0.0000E+00  1.8119E-07  0.0000E+00  0.0000E+00
 27  0.0000E+00  3.9233E-03  0.0000E+00  0.0000E+00  0.0000E+00  4.6141E-07  0.0000E+00  0.0000E+00  0.0000E+00
 28  0.0000E+00  8.7347E-03  0.0000E+00  0.0000E+00  0.0000E+00  0.0000E+00  0.0000E+00  0.0000E+00  0.0000E+00
 29  0.0000E+00  1.8557E-02  0.0000E+00  2.7977E-05  0.0000E+00  0.0000E+00  0.0000E+00  4.5694E-06  0.0000E+00
 30  0.0000E+00  4.7207E-02  0.0000E+00  0.0000E+00  0.0000E+00  0.0000E+00  0.0000E+00  0.0000E+00  0.0000E+00
 31  0.0000E+00  8.1783E-02  0.0000E+00  0.0000E+00  0.0000E+00  0.0000E+00  0.0000E+00  0.0000E+00  0.0000E+00
 32  0.0000E+00  9.4020E-02  0.0000E+00  0.0000E+00  0.0000E+00  0.0000E+00  0.0000E+00  0.0000E+00  0.0000E+00
 33  0.0000E+00  2.7154E-01  0.0000E+00  0.0000E+00  0.0000E+00  0.0000E+00  0.0000E+00  0.0000E+00  0.0000E+00
 34  0.0000E+00  3.4127E-01  0.0000E+00  0.0000E+00  3.6887E-04  5.5414E-04  0.0000E+00  2.3790E-04  0.0000E+00
 35  0.0000E+00  4.6542E-04  0.0000E+00  0.0000E+00  0.0000E+00  0.0000E+00  0.0000E+00  0.0000E+00  0.0000E+00
 36  0.0000E+00  1.2110E-04  0.0000E+00  0.0000E+00  0.0000E+00  0.0000E+00  5.4455E-08  0.0000E+00  0.0000E+00
 37  0.0000E+00  1.7201E-04  0.0000E+00  0.0000E+00  0.0000E+00  0.0000E+00  0.0000E+00  0.0000E+00  2.4909E-07
 38  0.0000E+00  7.2643E-04  0.0000E+00  0.0000E+00  0.0000E+00  0.0000E+00  0.0000E+00  0.0000E+00  0.0000E+00
 39  0.0000E+00  6.3217E-04  0.0000E+00  0.0000E+00  0.0000E+00  0.0000E+00  0.0000E+00  0.0000E+00  0.0000E+00
 40  0.0000E+00  1.0961E-03  0.0000E+00  0.0000E+00  0.0000E+00  0.0000E+00  0.0000E+00  0.0000E+00  0.0000E+00
 41  0.0000E+00  2.4500E-03  0.0000E+00  0.0000E+00  0.0000E+00  0.0000E+00  0.0000E+00  0.0000E+00  0.0000E+00
 42  0.0000E+00  3.5059E-03  0.0000E+00  0.0000E+00  0.0000E+00  0.0000E+00  0.0000E+00  0.0000E+00  0.0000E+00
 43  0.0000E+00  6.7488E-03  0.0000E+00  0.0000E+00  0.0000E+00  0.0000E+00  0.0000E+00  0.0000E+00  0.0000E+00
 44  0.0000E+00  1.0169E-02  0.0000E+00  2.4239E-05  0.0000E+00  0.0000E+00  0.0000E+00  0.0000E+00  0.0000E+00
 45  0.0000E+00  1.8899E-02  0.0000E+00  0.0000E+00  0.0000E+00  0.0000E+00  0.0000E+00  0.0000E+00  0.0000E+00
 46  0.0000E+00  2.5017E-02  0.0000E+00  0.0000E+00  0.0000E+00  0.0000E+00  0.0000E+00  0.0000E+00  0.0000E+00
 47  0.0000E+00  4.9057E-02  0.0000E+00  2.2693E-04  0.0000E+00  0.0000E+00  0.0000E+00  0.0000E+00  0.0000E+00
 48  0.0000E+00  9.0653E-02  0.0000E+00  0.0000E+00  0.0000E+00  0.0000E+00  0.0000E+00  0.0000E+00  0.0000E+00
 49  0.0000E+00  2.8764E-01  0.0000E+00  9.0146E-04  0.0000E+00  0.0000E+00  0.0000E+00  0.0000E+00  0.0000E+00
 50  0.0000E+00  6.7090E-01  0.0000E+00  0.0000E+00  1.6161E-04  0.0000E+00  0.0000E+00  0.0000E+00  0.0000E+00
 51  0.0000E+00  2.8652E-04  0.0000E+00  0.0000E+00  0.0000E+00  0.0000E+00  0.0000E+00  0.0000E+00  0.0000E+00
 52  0.0000E+00  1.3931E-04  0.0000E+00  0.0000E+00  0.0000E+00  0.0000E+00  0.0000E+00  0.0000E+00  0.0000E+00
 53  0.0000E+00  2.2924E-04  0.0000E+00  0.0000E+00  0.0000E+00  0.0000E+00  0.0000E+00  0.0000E+00  0.0000E+00
 54  0.0000E+00  5.1211E-04  0.0000E+00  0.0000E+00  0.0000E+00  0.0000E+00  0.0000E+00  0.0000E+00  0.0000E+00
 55  0.0000E+00  6.8373E-04  0.0000E+00  0.0000E+00  0.0000E+00  0.0000E+00  0.0000E+00  0.0000E+00  0.0000E+00
 56  0.0000E+00  1.3881E-03  0.0000E+00  0.0000E+00  0.0000E+00  1.8670E-07  0.0000E+00  6.7017E-07  0.0000E+00
 57  0.0000E+00  1.0712E-03  0.0000E+00  0.0000E+00  0.0000E+00  0.0000E+00  0.0000E+00  0.0000E+00  0.0000E+00
 58  0.0000E+00  3.3550E-03  0.0000E+00  0.0000E+00  0.0000E+00  0.0000E+00  0.0000E+00  0.0000E+00  0.0000E+00
 59  0.0000E+00  6.1692E-03  0.0000E+00  0.0000E+00  0.0000E+00  0.0000E+00  0.0000E+00  0.0000E+00  0.0000E+00
 60  0.0000E+00  9.5670E-03  0.0000E+00  0.0000E+00  0.0000E+00  0.0000E+00  0.0000E+00  0.0000E+00  0.0000E+00
 61  0.0000E+00  2.8807E-02  0.0000E+00  0.0000E+00  0.0000E+00  0.0000E+00  0.0000E+00  0.0000E+00  0.0000E+00
 62  0.0000E+00  4.2180E-02  0.0000E+00  0.0000E+00  0.0000E+00  0.0000E+00  0.0000E+00  0.0000E+00  0.0000E+00
 63  0.0000E+00  7.9624E-02  0.0000E+00  0.0000E+00  0.0000E+00  0.0000E+00  0.0000E+00  0.0000E+00  0.0000E+00
 64  0.0000E+00  3.0201E-01  0.0000E+00  0.0000E+00  0.0000E+00  0.0000E+00  0.0000E+00  0.0000E+00  0.0000E+00
 65  0.0000E+00  1.2202E+00  1.7036E-03  1.6875E+00  9.3670E-01  8.6193E-03  0.0000E+00  0.0000E+00  2.8607E+00
 66  1.0000E+02  9.5663E+01  9.9998E+01  9.8311E+01  9.9063E+01  9.9991E+01  1.0000E+02  1.0000E+02  9.7139E+01

# AV, chi2 & Mass for <> & i_chain = 1 ...  7 solutions
AV       2.7702      2.7523      2.7707      2.7742      2.7720      2.7708      2.7488      2.7702      2.7760
chi2 2.5503E-05  2.6600E-05  2.5503E-05  2.5505E-05  2.5504E-05  2.5503E-05  2.5504E-05  2.5503E-05  2.5507E-05
Mass 1.6109E-12  1.0656E-12  1.6119E-12  1.6082E-12  1.6084E-12  1.6121E-12  1.5651E-12  1.6108E-12  1.6044E-12
   0.00                                  [v0_min (km/s) before EX0s...]
   0.03                                  [vd_min (km/s) before EX0s...]


## Synthetic spectrum (Best Model) ##l_obs f_obs f_syn wei
 3478    [Nl_obs]
 3741.00   30.82824   0.46008    0.000
 3742.00   30.26286   0.40921    0.000
 3743.00   17.76754   0.33046    0.000
 3744.00    7.67862   0.27614    0.000
 3745.00   -1.00824   0.24561    0.000
 3746.00    4.23564   0.23199    0.001
 3747.00   16.55363   0.23264    0.001
 3748.00   10.54654   0.21142    0.001
 3749.00   -3.51862   0.19502    0.000
 3750.00  -11.06370   0.24826    0.000
 3751.00  -16.14724   0.34773    0.000
 3752.00   -4.31554   0.41910    0.000
 3753.00   12.93726   0.46612    0.001
 3754.00   16.32584   0.52980    0.001
 3755.00   15.99909   0.57123    0.001
 3756.00   19.17430   0.52141    0.001
 3757.00   23.11814   0.39041    0.001
 3758.00   15.13496   0.28450    0.001
 3759.00    5.06973   0.28538    0.001
 3760.00   -1.33840   0.35205    0.000
 3761.00   -7.26071   0.40307    0.000
 3762.00   -6.07033   0.39878    0.000
 3763.00   -4.21153   0.35582    0.000
 3764.00    0.18874   0.34291    0.001
 3765.00    4.73563   0.37371    0.001
 3766.00   20.26157   0.36749    0.001
 3767.00   35.84967   0.34811    0.001
 3768.00   27.38298   0.41156    0.001
 3769.00   18.39336   0.51079    0.001
 3770.00   -3.29882   0.55334    0.000
 3771.00  -22.63341   0.57026    0.000
 3772.00  -11.07366   0.60135    0.000
 3773.00    0.90672   0.61326    0.001
 3774.00   16.57975   0.58287    0.001
 3775.00   28.33781   0.54595    0.001
 3776.00   14.71182   0.54389    0.001
 3777.00    2.04226   0.55555    0.001
 3778.00   -5.78659   0.55808    0.000
 3779.00   -9.40689   0.58352    0.000
 3780.00    4.19899   0.62177    0.001
 3781.00   11.66536   0.62676    0.001
 3782.00   -1.69162   0.61725    0.000
 3783.00  -15.69994   0.62756    0.000
 3784.00  -31.57110   0.63884    0.000
 3785.00  -40.56050   0.58331    0.000
 3786.00  -32.73605   0.46619    0.000
 3787.00  -22.95335   0.38696    0.000
 3788.00   -9.04329   0.36052    0.000
 3789.00    2.99205   0.35250    0.001
 3790.00   11.59347   0.37798    0.001
 3791.00   25.17483   0.43996    0.001
 3792.00   46.72781   0.46359    0.001
 3793.00   54.66753   0.42300    0.001
 3794.00   43.48573   0.37263    0.001
 3795.00   29.21797   0.35801    0.001
 3796.00   11.13593   0.38188    0.001
 3797.00    8.39247   0.38041    0.001
 3798.00   22.36021   0.33550    0.001
 3799.00   18.83996   0.32571    0.001
 3800.00   -1.48607   0.38483    0.000
 3801.00  -12.95576   0.45700    0.000
 3802.00  -16.92075   0.50308    0.000
 3803.00  -13.90259   0.53819    0.000
 3804.00   -5.67351   0.55594    0.000
 3805.00   -0.30931   0.53668    0.000
 3806.00    3.17682   0.47715    0.001
 3807.00    6.55006   0.42467    0.001
 3808.00    9.85851   0.44190    0.001
 3809.00   14.97441   0.49801    0.001
 3810.00   20.99372   0.53229    0.001
 3811.00   10.76033   0.52944    0.001
 3812.00   -6.50137   0.48617    0.000
 3813.00   -8.80720   0.41400    0.000
 3814.00   -5.56651   0.35433    0.000
 3815.00   -5.78790   0.31407    0.000
 3816.00   -7.09762   0.30019    0.000
 3817.00  -19.30014   0.32733    0.000
 3818.00  -34.36009   0.34361    0.000
 3819.00  -28.97843   0.29830    0.000
 3820.00  -19.21706   0.23995    0.000
 3821.00  -13.84275   0.23979    0.000
 3822.00   -9.21296   0.28773    0.000
 3823.00   -6.52803   0.30529    0.000
 3824.00   -4.09266   0.26502    0.000
 3825.00   -6.91452   0.22258    0.000
 3826.00  -10.20828   0.21623    0.000
 3827.00   -2.60720   0.23474    0.000
 3828.00    5.57947   0.25701    0.001
 3829.00    0.67086   0.27936    0.001
 3830.00   -4.45436   0.29925    0.000
 3831.00   -5.71289   0.29620    0.000
 3832.00   -6.72405   0.26244    0.000
 3833.00   -2.23952   0.23584    0.000
 3834.00    1.04345   0.24665    0.001
 3835.00  -10.61479   0.29375    0.000
 3836.00  -19.25481   0.33200    0.000
 3837.00   -2.38414   0.31594    0.000
 3838.00    9.53916   0.27179    0.001
 3839.00   -9.66149   0.24437    0.000
 3840.00  -25.19570   0.23836    0.000
 3841.00  -22.63904   0.26630    0.000
 3842.00  -21.88504   0.33990    0.000
 3843.00  -28.34730   0.40050    0.000
 3844.00  -26.07318   0.41840    0.000
 3845.00    5.24577   0.41088    0.001
 3846.00   26.83947   0.40335    0.001
 3847.00   21.12351   0.41118    0.000
 3848.00    9.41154   0.40617    0.000
 3849.00  -16.70199   0.36249    0.000
 3850.00  -34.16195   0.32812    0.000
 3851.00  -33.67512   0.35591    0.000
 3852.00  -29.45040   0.39842    0.000
 3853.00  -18.48387   0.39160    0.000
 3854.00  -10.03329   0.36374    0.000
 3855.00   -5.55053   0.34142    0.000
 3856.00   -2.50942   0.31754    0.000
 3857.00   -1.46405   0.30607    0.000
 3858.00    1.84522   0.28747    0.000
 3859.00    7.91301   0.24960    0.000
 3860.00   15.17476   0.23698    0.000
 3861.00   23.71902   0.28476    0.000
 3862.00   26.25706   0.36727    0.000
 3863.00   23.10422   0.41778    0.000
 3864.00   13.25201   0.40889    0.000
 3865.00   -2.19686   0.38108    0.000
 3866.00   -5.93472   0.37317    0.000
 3867.00   -1.05907   0.37956    0.000
 3868.00   -0.65890   0.37445    0.000
 3869.00   -3.14954   0.35524    0.000
 3870.00   -3.70750   0.32474    0.000
 3871.00   -3.17323   0.29933    0.000
 3872.00    3.27848   0.29646    0.000
 3873.00   12.64105   0.33803    0.000
 3874.00    5.09820   0.41818    0.000
 3875.00   -9.63328   0.47505    0.000
 3876.00   -5.34515   0.45839    0.000
 3877.00    5.87088   0.38867    0.000
 3878.00   11.36328   0.32607    0.000
 3879.00   15.09122   0.33404    0.000
 3880.00    7.46928   0.37711    0.000
 3881.00   -3.06637   0.36731    0.000
 3882.00  -14.34587   0.35052    0.000
 3883.00  -25.78087   0.41956    0.000
 3884.00  -15.18597   0.50216    0.000
 3885.00   -0.95841   0.45825    0.000
 3886.00    4.84598   0.35334    0.001
 3887.00    9.60723   0.34269    0.001
 3888.00   16.44288   0.40573    0.001
 3889.00   23.45606   0.47437    0.001
 3890.00   13.61694   0.55164    0.001
 3891.00    2.93790   0.63555    0.001
 3892.00    2.83328   0.69171    0.001
 3893.00    2.85049   0.68831    0.001
 3894.00   -0.44932   0.63327    0.000
 3895.00   -3.81243   0.56956    0.000
 3896.00   -8.47056   0.56736    0.000
 3897.00  -12.45740   0.60851    0.000
 3898.00   -8.50568   0.59379    0.000
 3899.00   -4.87946   0.53954    0.000
 3900.00   -3.90497   0.53993    0.000
 3901.00   -3.03885   0.60136    0.000
 3902.00   -2.83467   0.61019    0.000
 3903.00   -1.58991   0.56813    0.000
 3904.00    4.66236   0.55725    0.001
 3905.00    7.75743   0.52849    0.001
 3906.00   -1.51167   0.50049    0.000
 3907.00   -7.29127   0.55928    0.000
 3908.00   -1.69692   0.65764    0.000
 3909.00    4.32194   0.71636    0.001
 3910.00   11.51140   0.72665    0.001
 3911.00   13.10747   0.73564    0.001
 3912.00    1.49505   0.76073    0.001
 3913.00   -6.21498   0.76790    0.000
 3914.00   -5.96067   0.75735    0.000
 3915.00   -8.38255   0.74361    0.000
 3916.00  -15.55774   0.70337    0.000
 3917.00  -16.95630   0.66571    0.000
 3918.00   -9.37909   0.64205    0.000
 3919.00   -7.19782   0.58226    0.000
 3920.00  -12.37903   0.49741    0.000
 3921.00  -14.18231   0.44992    0.000
 3922.00  -11.92796   0.45769    0.000
 3923.00   -8.39832   0.49212    0.000
 3924.00   -3.51805   0.53485    0.000
 3925.00    6.74713   0.54165    0.001
 3926.00   22.04281   0.49855    0.001
 3927.00   18.08927   0.43430    0.001
 3928.00   -1.71737   0.36486    0.000
 3929.00  -10.94591   0.31002    0.000
 3930.00  -12.50611   0.26983    0.000
 3931.00  -17.62791   0.23810    0.000
 3932.00  -25.01634   0.22179    0.000
 3933.00  -23.05895   0.22150    0.000
 3934.00  -15.90034   0.22062    0.000
 3935.00   -8.80061   0.21945    0.000
 3936.00   -1.72937   0.24906    0.000
 3937.00    6.04054   0.30760    0.001
 3938.00   14.10257   0.37784    0.001
 3939.00   14.76670   0.44603    0.001
 3940.00   12.78456   0.48600    0.001
 3941.00    3.30951   0.48718    0.001
 3942.00   -8.43031   0.47297    0.000
 3943.00   -4.08387   0.44116    0.000
 3944.00    4.30281   0.42339    0.001
 3945.00    8.81918   0.50139    0.001
 3946.00   12.54631   0.62448    0.001
 3947.00    7.88422   0.66184    0.001
 3948.00    1.87883   0.63902    0.001
 3949.00   -3.81042   0.67155    0.000
 3950.00   -9.46192   0.75901    0.000
 3951.00   -6.68475   0.80119    0.000
 3952.00   -3.22121   0.75202    0.000
 3953.00   -1.25579   0.73626    0.000
 3954.00    0.64077   0.80795    0.001
 3955.00   -6.90571   0.82167    0.000
 3956.00  -14.50695   0.73740    0.000
 3957.00  -18.68342   0.68661    0.000
 3958.00  -22.14533   0.70845    0.000
 3959.00  -12.07098   0.72102    0.000
 3960.00   -2.27723   0.63694    0.000
 3961.00    4.35436   0.48397    0.000
 3962.00    8.72405   0.39249    0.000
 3963.00   -4.68559   0.39965    0.000
 3964.00  -15.32425   0.41533    0.000
 3965.00   -9.52071   0.38100    0.000
 3966.00   -3.43183   0.31226    0.000
 3967.00    3.99682   0.25653    0.000
 3968.00    8.13684   0.23579    0.000
 3969.00   -0.32593   0.24314    0.000
 3970.00   -9.56441   0.27598    0.000
 3971.00  -21.28234   0.32895    0.000
 3972.00  -28.89933   0.38752    0.000
 3973.00  -25.40969   0.44592    0.000
 3974.00  -20.38299   0.51963    0.000
 3975.00  -11.78727   0.60592    0.000
 3976.00  -10.32279   0.66794    0.000
 3977.00  -23.18184   0.72035    0.000
 3978.00  -23.24720   0.79285    0.000
 3979.00   -0.93421   0.87128    0.000
 3980.00    7.17910   0.92702    0.000
 3981.00   -6.44686   0.91940    0.000
 3982.00  -14.84310   0.87918    0.000
 3983.00  -16.20616   0.86706    0.000
 3984.00  -18.19949   0.88727    0.000
 3985.00  -20.93921   0.93487    0.000
 3986.00  -18.62833   0.97082    0.000
 3987.00  -11.04360   1.00460    0.000
 3988.00   -7.93980   1.05911    0.000
 3989.00   -8.96319   1.03614    0.000
 3990.00   -4.75949   0.97419    0.000
 3991.00    3.68805   0.99431    0.001
 3992.00    9.63655   1.05349    0.001
 3993.00   13.79955   1.08636    0.001
 3994.00    6.61381   1.06922    0.001
 3995.00   -7.68755   1.03179    0.000
 3996.00   -8.87474   0.98671    0.000
 3997.00   -2.87519   0.94127    0.000
 3998.00   -5.64820   0.95275    0.000
 3999.00  -12.59995   1.06814    0.000
 4000.00  -16.05336   1.17805    0.000
 4001.00  -18.06890   1.19682    0.000
 4002.00   -3.30686   1.21504    0.000
 4003.00   17.34785   1.23130    0.001
 4004.00   24.82872   1.11889    0.001
 4005.00   28.40628   0.92350    0.001
 4006.00   24.79515   0.86800    0.001
 4007.00   19.41810   0.99145    0.001
 4008.00    9.21715   1.11738    0.001
 4009.00   -1.94290   1.16638    0.000
 4010.00   -4.58363   1.17615    0.000
 4011.00   -5.90059   1.17568    0.000
 4012.00   -9.22151   1.18377    0.000
 4013.00  -12.77286   1.20641    0.000
 4014.00   -6.00812   1.22768    0.000
 4015.00    1.55421   1.26699    0.001
 4016.00   -3.04627   1.27774    0.000
 4017.00   -8.15891   1.21663    0.000
 4018.00   -1.08095   1.20702    0.000
 4019.00    5.74603   1.28115    0.001
 4020.00   -3.29942   1.29999    0.000
 4021.00  -11.88626   1.25335    0.000
 4022.00  -12.38745   1.23050    0.000
 4023.00  -12.58583   1.22056    0.000
 4024.00   -9.52607   1.17229    0.000
 4025.00   -6.38782   1.15941    0.000
 4026.00   -2.65363   1.22586    0.000
 4027.00    1.00000   1.31408    0.001
 4028.00    4.18898   1.37931    0.001
 4029.00    8.79873   1.31303    0.001
 4030.00   19.91978   1.07758    0.001
 4031.00   27.05960   0.88116    0.001
 4032.00   19.26540   0.82300    0.001
 4033.00   10.02642   0.79582    0.001
 4034.00   -3.74195   0.81943    0.000
 4035.00   -9.76373   0.94716    0.000
 4036.00    4.82311   1.14925    0.001
 4037.00   12.49138   1.33364    0.001
 4038.00    4.36149   1.40234    0.001
 4039.00   -3.45611   1.35915    0.000
 4040.00  -10.65634   1.27302    0.000
 4041.00  -11.46459   1.23376    0.000
 4042.00   -1.26123   1.27072    0.000
 4043.00    4.64230   1.22110    0.001
 4044.00    4.05941   0.98352    0.001
 4045.00    2.82355   0.71056    0.001
 4046.00    0.72214   0.64488    0.001
 4047.00    3.15682   0.84731    0.001
 4048.00   10.88739   1.10187    0.001
 4049.00   18.48635   1.24724    0.001
 4050.00   25.94979   1.33010    0.001
 4051.00   23.48804   1.36302    0.001
 4052.00   12.01320   1.33026    0.001
 4053.00    5.59669   1.27384    0.001
 4054.00    3.22871   1.19901    0.001
 4055.00    6.40380   1.13381    0.001
 4056.00   13.48205   1.12143    0.001
 4057.00    9.69276   1.07175    0.001
 4058.00   -0.80939   1.01162    0.000
 4059.00   -8.38903   1.07179    0.000
 4060.00  -14.39172   1.19938    0.000
 4061.00  -19.59081   1.22353    0.000
 4062.00  -24.41327   1.05511    0.000
 4063.00  -25.53525   0.81443    0.000
 4064.00  -25.16217   0.76808    0.000
 4065.00   -9.83385   0.95379    0.000
 4066.00   10.65107   1.08433    0.001
 4067.00   10.90541   1.09273    0.001
 4068.00    5.28518   1.16598    0.001
 4069.00  -11.14022   1.29251    0.000
 4070.00  -30.16095   1.24990    0.000
 4071.00  -24.80743   1.02215    0.000
 4072.00  -14.73102   0.92742    0.000
 4073.00   -7.96815   1.10701    0.000
 4074.00   -1.70460   1.27186    0.000
 4075.00   -0.65508   1.22789    0.000
 4076.00   -0.18228   1.05714    0.000
 4077.00   -6.58083   0.92257    0.000
 4078.00  -13.48256   0.95321    0.000
 4079.00   -6.86441   1.11653    0.000
 4080.00    0.27133   1.31095    0.001
 4081.00   -8.14898   1.45375    0.000
 4082.00  -16.24710   1.44502    0.000
 4083.00   -8.95272   1.33189    0.000
 4084.00   -2.46203   1.26761    0.000
 4085.00   -9.21597   1.26869    0.000
 4086.00  -15.25994   1.33014    0.000
 4087.00  -13.99788   1.46124    0.000
 4088.00  -13.35310   1.58739    0.000
 4089.00  -17.23799   1.61521    0.000
 4090.00  -19.70279   1.55053    0.000
 4091.00  -14.20110   1.47721    0.000
 4092.00   -9.63577   1.42390    0.000
 4093.00   -9.26058   1.43946    0.000
 4094.00   -8.61945   1.46235    0.000
 4095.00   -7.00163   1.34256    0.000
 4096.00   -6.92611   1.19470    0.000
 4097.00  -11.59389   1.17030    0.000
 4098.00  -15.15080   1.21237    0.000
 4099.00  -15.80432   1.23088    0.000
 4100.00  -13.38936   1.16010    0.000
 4101.00   -4.08326   1.05449    0.000
 4102.00    0.43479   1.06586    0.000
 4103.00   -4.36430   1.16312    0.000
 4104.00   -6.27184   1.22730    0.000
 4105.00   -3.27309   1.30146    0.000
 4106.00   -1.70188   1.40812    0.000
 4107.00   -2.25270   1.44238    0.000
 4108.00   -1.15347   1.39910    0.000
 4109.00    2.10177   1.32915    0.000
 4110.00    4.93487   1.25659    0.000
 4111.00    7.28209   1.21274    0.000
 4112.00    4.45556   1.22714    0.000
 4113.00   -3.62281   1.30553    0.000
 4114.00   -6.97905   1.37285    0.000
 4115.00   -6.10746   1.39116    0.000
 4116.00   -3.28038   1.41104    0.000
 4117.00    1.08955   1.40445    0.001
 4118.00    2.71473   1.30058    0.001
 4119.00    2.43518   1.21091    0.001
 4120.00    4.57236   1.25288    0.001
 4121.00    8.18013   1.29993    0.001
 4122.00   11.30211   1.27666    0.001
 4123.00   14.16602   1.26494    0.001
 4124.00    4.65012   1.33440    0.001
 4125.00  -10.57407   1.41807    0.000
 4126.00   -6.88195   1.40361    0.000
 4127.00    4.32151   1.33318    0.001
 4128.00    7.94709   1.28464    0.001
 4129.00    9.00801   1.26245    0.001
 4130.00    7.80231   1.22826    0.001
 4131.00    5.95170   1.14481    0.001
 4132.00    2.27347   1.03563    0.001
 4133.00   -1.83387   1.01062    0.000
 4134.00   -1.14164   1.06972    0.000
 4135.00    0.45652   1.20552    0.001
 4136.00   -5.13037   1.34722    0.000
 4137.00  -11.76646   1.37823    0.000
 4138.00  -10.26947   1.37596    0.000
 4139.00   -7.90821   1.39495    0.000
 4140.00    2.05649   1.39998    0.001
 4141.00   12.54715   1.34071    0.001
 4142.00   16.96248   1.13997    0.001
 4143.00   21.16829   0.89556    0.001
 4144.00   13.07919   0.86097    0.001
 4145.00    5.05206   1.05076    0.001
 4146.00   -0.12265   1.22874    0.000
 4147.00   -5.18785   1.28613    0.000
 4148.00   -8.55979   1.27414    0.000
 4149.00  -10.11401   1.21471    0.000
 4150.00    6.24969   1.15260    0.001
 4151.00   20.22896   1.14334    0.001
 4152.00   17.27977   1.15367    0.001
 4153.00   14.61831   1.15791    0.001
 4154.00   13.52754   1.14220    0.001
 4155.00    8.73459   1.13516    0.001
 4156.00  -12.24063   1.13037    0.000
 4157.00  -27.14296   1.14819    0.000
 4158.00  -20.20256   1.24386    0.000
 4159.00  -13.96672   1.35359    0.000
 4160.00   -9.85700   1.39201    0.000
 4161.00   -7.06857   1.39424    0.000
 4162.00   -7.67327   1.45578    0.000
 4163.00   -5.72152   1.49794    0.000
 4164.00    1.87738   1.42393    0.001
 4165.00    5.53206   1.33581    0.001
 4166.00    1.63132   1.28170    0.001
 4167.00    0.45091   1.21545    0.001
 4168.00    3.81703   1.22597    0.001
 4169.00    4.43533   1.33114    0.001
 4170.00    1.02852   1.39533    0.001
 4171.00    3.24283   1.32633    0.001
 4172.00   12.69698   1.15119    0.001
 4173.00   16.40944   1.04877    0.001
 4174.00   13.60620   1.09690    0.001
 4175.00   10.28675   1.17233    0.001
 4176.00    6.45065   1.20063    0.001
 4177.00    1.96840   1.18331    0.001
 4178.00   -3.08424   1.18602    0.000
 4179.00   -4.92640   1.24864    0.000
 4180.00   -4.27164   1.28006    0.000
 4181.00   -9.00854   1.23902    0.000
 4182.00  -17.43266   1.21407    0.000
 4183.00  -18.19769   1.27694    0.000
 4184.00  -14.37180   1.39780    0.000
 4185.00  -13.39071   1.49302    0.000
 4186.00  -13.89751   1.41152    0.000
 4187.00   -9.00682   1.21226    0.000
 4188.00   -1.66789   1.18980    0.000
 4189.00    1.46218   1.33632    0.001
 4190.00    2.94987   1.40302    0.000
 4191.00   -5.13419   1.35541    0.000
 4192.00  -16.39742   1.38662    0.000
 4193.00  -16.54358   1.50418    0.000
 4194.00  -13.59120   1.49714    0.000
 4195.00   -6.48155   1.34557    0.000
 4196.00    1.58186   1.20108    0.001
 4197.00    8.71113   1.13693    0.001
 4198.00   15.66873   1.11653    0.001
 4199.00    8.89972   1.14637    0.000
 4200.00    0.18971   1.20977    0.000
 4201.00   -7.69276   1.18469    0.000
 4202.00  -15.49084   1.14111    0.000
 4203.00  -12.52917   1.22824    0.000
 4204.00   -8.86649   1.34820    0.000
 4205.00   -1.44171   1.42495    0.000
 4206.00    6.08770   1.50144    0.000
 4207.00    6.59165   1.56660    0.000
 4208.00    7.24590   1.60249    0.000
 4209.00   12.31600   1.55828    0.000
 4210.00   17.05541   1.46832    0.000
 4211.00   16.98061   1.47881    0.001
 4212.00   16.15248   1.54625    0.001
 4213.00    8.20070   1.50962    0.001
 4214.00    1.79761   1.34794    0.001
 4215.00    6.04054   1.17133    0.001
 4216.00    9.71740   1.21358    0.000
 4217.00   10.38563   1.51003    0.001
 4218.00    9.89938   1.75354    0.001
 4219.00    4.48238   1.81797    0.001
 4220.00   -0.16737   1.82851    0.000
 4221.00   -2.11388   1.81240    0.000
 4222.00   -3.21988   1.67987    0.000
 4223.00   -1.83682   1.46488    0.000
 4224.00   -0.52322   1.23819    0.000
 4225.00    0.61506   0.96751    0.000
 4226.00    0.54881   0.68811    0.000
 4227.00   -2.13491   0.62554    0.000
 4228.00   -1.98639   0.91170    0.000
 4229.00    3.50329   1.29320    0.000
 4230.00    4.99281   1.55812    0.000
 4231.00   -0.10329   1.71170    0.000
 4232.00   -0.23447   1.67284    0.000
 4233.00    6.80143   1.50881    0.000
 4234.00    8.59108   1.46140    0.000
 4235.00    3.71995   1.45648    0.000
 4236.00    4.46403   1.39649    0.000
 4237.00   11.49048   1.43074    0.000
 4238.00   16.77846   1.51643    0.000
 4239.00   20.35094   1.54287    0.000
 4240.00   18.92545   1.59231    0.000
 4241.00   13.15038   1.71112    0.000
 4242.00   11.63290   1.78069    0.000
 4243.00   13.37948   1.82772    0.000
 4244.00   13.29669   1.98477    0.000
 4245.00   11.98107   2.08621    0.000
 4246.00   19.95704   1.97405    0.001
 4247.00   33.41895   1.76648    0.001
 4248.00   32.86774   1.61736    0.001
 4249.00   25.10163   1.50413    0.001
 4250.00   21.44697   1.35032    0.001
 4251.00   19.62670   1.33646    0.001
 4252.00    8.69374   1.50547    0.001
 4253.00   -5.73324   1.52795    0.000
 4254.00   -5.07500   1.34756    0.000
 4255.00    0.49950   1.30965    0.000
 4256.00    3.55211   1.56399    0.000
 4257.00    5.91634   1.82236    0.000
 4258.00    8.07872   1.77204    0.000
 4259.00   10.19587   1.51878    0.000
 4260.00   10.29345   1.30826    0.000
 4261.00   10.02984   1.31196    0.000
 4262.00    8.44624   1.58411    0.000
 4263.00    6.68205   1.89330    0.000
 4264.00    5.26744   2.03096    0.000
 4265.00    3.88698   2.07487    0.000
 4266.00   12.53187   2.08959    0.000
 4267.00   21.78988   1.98057    0.000
 4268.00   13.25398   1.80673    0.000
 4269.00    4.27269   1.66543    0.000
 4270.00    2.07662   1.45089    0.000
 4271.00    0.17593   1.14544    0.000
 4272.00    6.08360   1.02037    0.000
 4273.00   11.93350   1.14646    0.000
 4274.00   16.98936   1.20893    0.000
 4275.00   21.71498   1.24357    0.000
 4276.00   23.44082   1.48714    0.000
 4277.00   25.13930   1.80065    0.000
 4278.00   26.65559   1.99293    0.000
 4279.00   27.55174   1.96156    0.000
 4280.00   25.23743   1.75330    0.000
 4281.00   21.78069   1.65522    0.000
 4282.00   13.55471   1.69654   -2.000
 4283.00    6.84561   1.75783   -2.000
 4284.00    5.37296   1.79569   -2.000
 4285.00    3.52797   1.72375   -2.000
 4286.00    0.60068   1.66110   -2.000
 4287.00   -0.03245   1.69857   -2.000
 4288.00    5.02459   1.64118   -2.000
 4289.00   10.47545   1.38715   -2.000
 4290.00   16.76821   1.20633   -2.000
 4291.00   19.67671   1.30669   -2.000
 4292.00   16.30163   1.56778   -2.000
 4293.00   13.94217   1.74023   -2.000
 4294.00   13.22987   1.68958   -2.000
 4295.00   11.34927   1.65126   -2.000
 4296.00    7.80662   1.69526   -2.000
 4297.00    9.14744   1.63376   -2.000
 4298.00   16.60027   1.44396    0.000
 4299.00   19.60822   1.18699    0.000
 4300.00   17.71318   1.06346    0.000
 4301.00   15.06849   1.15977    0.000
 4302.00   11.69443   1.24743    0.000
 4303.00    8.11580   1.26928    0.000
 4304.00    4.36165   1.32324    0.000
 4305.00    0.68716   1.30597    0.000
 4306.00   -2.92714   1.19108    0.000
 4307.00   -2.00165   1.04224    0.000
 4308.00    1.93857   0.92280    0.000
 4309.00    9.29996   0.95926    0.000
 4310.00   18.65087   1.13357    0.000
 4311.00   20.35913   1.33192    0.000
 4312.00   18.19408   1.50910    0.000
 4313.00   18.03888   1.65460    0.000
 4314.00   18.76563   1.74526    0.000
 4315.00   18.60347   1.95064    0.000
 4316.00   18.10646   2.35448    0.000
 4317.00   13.71990   2.60549    0.000
 4318.00    8.08980   2.56270    0.000
 4319.00    3.03074   2.45166    0.000
 4320.00   -1.87570   2.35463    0.000
 4321.00   -3.37712   2.25441    0.000
 4322.00   -4.13341   2.17841    0.000
 4323.00    2.33198   1.95453    0.000
 4324.00   10.05364   1.56181    0.000
 4325.00   14.93222   1.21694    0.000
 4326.00   19.43474   1.18689    0.000
 4327.00   13.89144   1.61309    0.000
 4328.00    7.40942   2.17967    0.000
 4329.00    8.59772   2.45078    0.000
 4330.00   10.22470   2.38203    0.000
 4331.00   11.28653   2.29685    0.000
 4332.00   12.31579   2.36378    0.000
 4333.00   11.11162   2.45286    0.000
 4334.00   10.16868   2.54057    0.000
 4335.00   15.49810   2.65046    0.000
 4336.00   20.20032   2.55738    0.000
 4337.00   16.73833   2.14183    0.000
 4338.00   12.96650   1.79057    0.000
 4339.00    6.48766   1.68538    0.000
 4340.00    1.87970   1.63964    0.000
 4341.00    9.35589   1.75089    0.000
 4342.00   14.66194   2.05814    0.000
 4343.00    9.01951   2.21780    0.000
 4344.00    6.19852   2.20458    0.000
 4345.00   14.89379   2.30752    0.000
 4346.00   20.62874   2.38993    0.000
 4347.00   16.34842   2.35303    0.000
 4348.00   14.97953   2.46139    0.000
 4349.00   21.91830   2.68270    0.000
 4350.00   23.47716   2.57264    0.000
 4351.00   11.91978   2.06168    0.000
 4352.00    6.29041   1.71846    0.000
 4353.00   13.13003   1.85026    0.000
 4354.00   19.15787   2.10072    0.000
 4355.00   23.70166   2.21425    0.000
 4356.00   24.84714   2.34544    0.000
 4357.00   20.56297   2.48722    0.000
 4358.00   13.71043   2.40913    0.000
 4359.00    3.25686   2.20353    0.000
 4360.00    4.08481   2.21655    0.000
 4361.00   18.83185   2.44207    0.000
 4362.00   22.39593   2.57219    0.000
 4363.00   13.79790   2.55046    0.000
 4364.00   11.00728   2.63211    0.000
 4365.00   13.78761   2.78345    0.000
 4366.00   15.62591   2.70857    0.000
 4367.00   16.66737   2.42847    0.000
 4368.00   17.78104   2.25477    0.000
 4369.00   18.94848   2.29999    0.000
 4370.00   14.80177   2.36930    0.000
 4371.00    7.17781   2.39747    0.000
 4372.00    5.00165   2.40518    0.000
 4373.00    5.94570   2.27864    0.000
 4374.00    9.02496   2.02264    0.000
 4375.00   13.16932   1.85137    0.000
 4376.00   13.25186   1.96489    0.000
 4377.00   11.58159   2.29516    0.000
 4378.00   12.70034   2.52244    0.000
 4379.00   14.85109   2.49392    0.000
 4380.00   15.46793   2.33416    0.000
 4381.00   15.60374   2.15779    0.000
 4382.00   10.79546   1.81901    0.000
 4383.00    4.69372   1.29680    0.000
 4384.00    6.34780   1.04344    0.000
 4385.00    9.65854   1.34795    0.000
 4386.00   10.09260   1.88045    0.000
 4387.00   10.04019   2.14756    0.000
 4388.00    5.87317   2.13643    0.000
 4389.00    1.18048   2.06808    0.000
 4390.00    1.53136   2.01682    0.000
 4391.00    2.33230   2.06118    0.000
 4392.00    6.45040   2.20060    0.000
 4393.00   10.74515   2.28369    0.000
 4394.00   16.62092   2.22723    0.000
 4395.00   22.37700   2.18836    0.000
 4396.00   15.89147   2.39238    0.000
 4397.00   10.26801   2.68861    0.000
 4398.00   23.59285   2.74517    0.000
 4399.00   35.19784   2.55405    0.000
 4400.00   25.55369   2.28667    0.000
 4401.00   16.09377   2.22902    0.000
 4402.00    8.18377   2.42282    0.000
 4403.00    2.28605   2.32825    0.000
 4404.00    9.00040   1.79697    0.000
 4405.00   15.04684   1.49437    0.000
 4406.00   17.80804   1.71136    0.000
 4407.00   18.91024   1.94710    0.000
 4408.00   13.38968   1.97914    0.000
 4409.00    9.90205   2.15457    0.000
 4410.00   13.15629   2.51821    0.000
 4411.00   15.41121   2.75765    0.000
 4412.00   14.86633   2.83865    0.000
 4413.00   14.64721   2.77785    0.000
 4414.00   15.20887   2.40886    0.000
 4415.00   16.90600   1.99711    0.000
 4416.00   20.95324   2.02766    0.000
 4417.00   21.24148   2.33815    0.000
 4418.00   14.76288   2.61970    0.000
 4419.00   11.96228   2.83514    0.000
 4420.00   14.95130   2.89620    0.000
 4421.00   15.49704   2.71559    0.000
 4422.00   12.66654   2.42092    0.000
 4423.00   11.77592   2.31840    0.000
 4424.00   13.24477   2.45269    0.000
 4425.00   19.70149   2.53396    0.000
 4426.00   31.50654   2.49994    0.000
 4427.00   33.33278   2.50810    0.000
 4428.00   25.72090   2.61740    0.000
 4429.00   21.33071   2.63391    0.000
 4430.00   19.62712   2.45865    0.000
 4431.00   20.57149   2.45640    0.000
 4432.00   23.45994   2.64593    0.000
 4433.00   21.31926   2.60589    0.000
 4434.00   15.93618   2.30064    0.000
 4435.00   12.65577   2.05114    0.000
 4436.00   10.56137   2.14204    0.000
 4437.00   12.87043   2.51664    0.000
 4438.00   17.34124   2.87348    0.000
 4439.00   17.04975   3.05753    0.000
 4440.00   14.73748   2.96309    0.000
 4441.00   16.57379   2.64060    0.000
 4442.00   19.91781   2.35620    0.000
 4443.00   19.68388   2.30628    0.000
 4444.00   18.34966   2.52642    0.000
 4445.00   19.01559   2.88395    0.000
 4446.00   20.19359   3.05825    0.000
 4447.00   23.27865   2.97252    0.000
 4448.00   26.76116   2.96770    0.000
 4449.00   26.17738   3.01736    0.000
 4450.00   24.92551   2.91355    0.000
 4451.00   17.39603   2.86925    0.000
 4452.00    9.09263   2.89565    0.000
 4453.00   16.84937   2.75949    0.000
 4454.00   25.97217   2.45786    0.000
 4455.00   24.79341   2.20553    0.000
 4456.00   23.10623   2.22928    0.000
 4457.00   23.46253   2.37618    0.000
 4458.00   23.86819   2.38310    0.000
 4459.00   25.32997   2.30937    0.000
 4460.00   26.72981   2.27305    0.000
 4461.00   26.87510   2.18112    0.000
 4462.00   26.57848   2.17639    0.000
 4463.00   21.08793   2.50578    0.000
 4464.00   15.98880   2.80821    0.000
 4465.00   14.06404   2.78635    0.000
 4466.00   13.01402   2.70478    0.000
 4467.00   17.28720   2.73137    0.000
 4468.00   20.63618   2.73648    0.000
 4469.00   19.55139   2.64212    0.000
 4470.00   18.90321   2.63554    0.000
 4471.00   19.96023   2.76747    0.000
 4472.00   20.23549   2.93557    0.000
 4473.00   17.96889   3.11690    0.000
 4474.00   15.44535   3.18687    0.000
 4475.00   12.21494   3.11277    0.000
 4476.00   11.99446   3.15122    0.000
 4477.00   18.86675   3.36292    0.000
 4478.00   21.50648   3.44940    0.000
 4479.00   15.52537   3.22035    0.000
 4480.00   12.51955   2.84776    0.000
 4481.00   14.78813   2.60344    0.000
 4482.00   17.01628   2.58453    0.000
 4483.00   19.18170   2.83486    0.000
 4484.00   18.12023   3.17434    0.000
 4485.00   12.66382   3.39375    0.000
 4486.00    8.85801   3.48400    0.000
 4487.00    7.03140   3.39263    0.000
 4488.00   10.13792   3.11683    0.000
 4489.00   18.45978   2.81951    0.000
 4490.00   25.16338   2.72905    0.000
 4491.00   30.35789   2.92241    0.000
 4492.00   28.45340   3.16585    0.000
 4493.00   20.71283   3.14410    0.000
 4494.00   19.79886   2.82297    0.000
 4495.00   23.82469   2.59035    0.000
 4496.00   25.09387   2.64753    0.000
 4497.00   24.61197   2.87825    0.000
 4498.00   25.05742   3.15354    0.000
 4499.00   26.01798   3.33805    0.000
 4500.00   21.21762   3.33400    0.000
 4501.00   13.63411   3.15298    0.000
 4502.00   13.65273   3.16218    0.000
 4503.00   16.84292   3.51723    0.000
 4504.00   19.88194   3.79600    0.000
 4505.00   22.86700   3.78348    0.000
 4506.00   16.31649   3.62201    0.000
 4507.00    6.89093   3.47185    0.000
 4508.00    9.24562   3.44024    0.000
 4509.00   14.55089   3.51094    0.000
 4510.00   20.21770   3.61040    0.000
 4511.00   25.95801   3.61191    0.000
 4512.00   19.30600   3.44039    0.000
 4513.00   10.67710   3.23310    0.000
 4514.00   17.61449   3.13143    0.000
 4515.00   26.40179   3.18649    0.000
 4516.00   28.46364   3.31317    0.000
 4517.00   29.98130   3.29011    0.000
 4518.00   20.24953   3.19493    0.000
 4519.00   10.00620   3.30168    0.000
 4520.00   16.74232   3.53190    0.000
 4521.00   23.55229   3.68208    0.000
 4522.00   23.48678   3.56417    0.000
 4523.00   23.15503   3.33016    0.000
 4524.00   17.82620   3.25477    0.000
 4525.00   13.16853   3.14839    0.000
 4526.00   16.03019   2.90098    0.000
 4527.00   17.76764   2.65495    0.000
 4528.00   10.70736   2.50864    0.000
 4529.00    5.01898   2.52463    0.000
 4530.00    7.44197   2.65553    0.000
 4531.00   10.94972   2.79170    0.000
 4532.00   19.53527   2.97558    0.000
 4533.00   24.25580   3.01392    0.000
 4534.00   14.20453   2.81401    0.000
 4535.00    7.85575   2.63850    0.000
 4536.00   13.31252   2.84465    0.000
 4537.00   17.25612   3.38719    0.000
 4538.00   17.11079   3.65300    0.000
 4539.00   19.11230   3.49912    0.000
 4540.00   26.08827   3.23829    0.000
 4541.00   30.77469   3.11370    0.000
 4542.00   30.87156   3.24837    0.000
 4543.00   30.23421   3.44465    0.000
 4544.00   28.31502   3.38454    0.000
 4545.00   27.43393   3.19126    0.000
 4546.00   28.13917   3.19052    0.000
 4547.00   27.57323   3.30546    0.000
 4548.00   25.30083   3.29642    0.000
 4549.00   22.25915   3.15011    0.000
 4550.00   18.30810   3.16232    0.000
 4551.00   16.85258   3.33203    0.000
 4552.00   17.99832   3.31553    0.000
 4553.00   21.33022   3.18306    0.000
 4554.00   26.67212   3.09372    0.000
 4555.00   25.25797   3.08397    0.000
 4556.00   18.36843   3.26847    0.000
 4557.00   16.00044   3.58691    0.000
 4558.00   16.85712   3.79370    0.000
 4559.00   20.69023   3.82247    0.000
 4560.00   26.38607   3.74399    0.000
 4561.00   19.63980   3.72960    0.000
 4562.00    6.08828   3.76394    0.000
 4563.00    5.15201   3.59580    0.000
 4564.00   10.21275   3.30140    0.000
 4565.00   16.15992   3.16747    0.000
 4566.00   22.47065   3.33347    0.000
 4567.00   20.56915   3.70200    0.000
 4568.00   15.78998   3.91731    0.000
 4569.00   13.46786   3.88637    0.000
 4570.00   11.87193   3.71871    0.000
 4571.00   14.23921   3.41445    0.000
 4572.00   17.57735   3.35410    0.000
 4573.00   22.74820   3.69811    0.000
 4574.00   28.28226   3.87613    0.000
 4575.00   25.59320   3.76949    0.000
 4576.00   21.63125   3.73251    0.000
 4577.00   16.59649   3.74492    0.000
 4578.00   11.43897   3.63777    0.000
 4579.00   19.28003   3.38596    0.000
 4580.00   28.11941   3.15425    0.000
 4581.00   18.99744   3.17194    0.000
 4582.00    9.12780   3.41772    0.000
 4583.00   10.94383   3.57396    0.000
 4584.00   12.87065   3.51396    0.000
 4585.00   15.20087   3.38150    0.000
 4586.00   17.81071   3.30975    0.000
 4587.00   25.30765   3.46647    0.000
 4588.00   31.76094   3.77826    0.000
 4589.00   27.04845   3.97031    0.000
 4590.00   21.29515   3.91268    0.000
 4591.00    7.67464   3.67428    0.000
 4592.00   -2.56127   3.48125    0.000
 4593.00    6.65642   3.44719    0.000
 4594.00   14.87024   3.42467    0.000
 4595.00   18.49722   3.35475    0.000
 4596.00   20.55871   3.36264    0.000
 4597.00   16.76349   3.41075    0.000
 4598.00   15.84949   3.48032    0.000
 4599.00   23.94633   3.57910    0.000
 4600.00   29.07129   3.51091    0.000
 4601.00   26.30762   3.43238    0.000
 4602.00   23.72190   3.52456    0.000
 4603.00   21.54166   3.57209    0.000
 4604.00   20.34204   3.52459    0.000
 4605.00   21.07716   3.43650    0.000
 4606.00   21.45627   3.46308    0.000
 4607.00   21.22326   3.71822    0.000
 4608.00   21.04620   4.09939    0.000
 4609.00   20.95338   4.34267    0.000
 4610.00   21.53423   4.26862    0.000
 4611.00   23.00648   4.04229    0.000
 4612.00   21.65906   3.89018    0.000
 4613.00   17.02553   3.80912    0.000
 4614.00   17.79422   3.88396    0.000
 4615.00   24.11492   4.07410    0.000
 4616.00   22.91678   4.12168    0.000
 4617.00   14.90290   4.16388    0.000
 4618.00    9.61802   4.18093    0.000
 4619.00    6.51344   4.01663    0.000
 4620.00    9.18955   3.99600    0.000
 4621.00   15.92871   4.17091    0.000
 4622.00   21.41222   4.16426    0.000
 4623.00   26.12159   4.08963    0.000
 4624.00   25.24775   4.11612    0.000
 4625.00   21.36714   4.05520    0.000
 4626.00   17.12341   3.95887    0.000
 4627.00   12.70985   4.02015    0.000
 4628.00   16.75230   4.09052    0.000
 4629.00   24.20372   3.99743    0.000
 4630.00   23.87756   3.98856    0.000
 4631.00   20.87591   4.18000    0.000
 4632.00   20.72183   4.19627    0.000
 4633.00   21.39254   3.95773    0.000
 4634.00   19.77544   3.82544    0.000
 4635.00   17.61039   3.86393    0.000
 4636.00   19.39946   3.87638    0.000
 4637.00   21.95221   3.75320    0.000
 4638.00   22.85954   3.61626    0.000
 4639.00   23.51989   3.53040    0.000
 4640.00   21.47570   3.48474    0.000
 4641.00   19.13384   3.66787    0.000
 4642.00   17.56804   3.89972    0.000
 4643.00   16.05867   3.86683    0.000
 4644.00   17.77595   3.71051    0.000
 4645.00   19.61521   3.52657    0.000
 4646.00   18.45716   3.23544    0.000
 4647.00   17.40164   3.08118    0.000
 4648.00   20.70884   3.20720    0.000
 4649.00   24.11823   3.45128    0.000
 4650.00   29.19796   3.69429    0.000
 4651.00   33.46895   3.86900    0.000
 4652.00   29.46285   3.98551    0.000
 4653.00   25.58463   4.02062    0.000
 4654.00   22.64092   3.83547    0.000
 4655.00   19.46600   3.61832    0.000
 4656.00   14.99844   3.57709    0.000
 4657.00   12.40244   3.74251    0.000
 4658.00   18.15679   4.10261    0.000
 4659.00   25.00868   4.44079    0.000
 4660.00   35.88093   4.54622    0.000
 4661.00   41.09345   4.38654    0.000
 4662.00   28.94127   4.09193    0.000
 4663.00   17.84432   3.84100    0.000
 4664.00    9.49925   3.78726    0.000
 4665.00    8.06096   3.78072    0.000
 4666.00   22.10162   3.48701    0.000
 4667.00   28.41109   3.03870    0.000
 4668.00   19.70596   2.94286    0.000
 4669.00   13.83400   3.29434    0.000
 4670.00   12.76020   3.73290    0.000
 4671.00   13.70347   3.99973    0.000
 4672.00   17.63957   4.02507    0.000
 4673.00   21.75389   3.90980    0.000
 4674.00   26.10064   3.82290    0.000
 4675.00   27.93988   3.88451    0.000
 4676.00   26.89805   4.09959    0.000
 4677.00   24.55857   4.17133    0.000
 4678.00   20.90419   3.98953    0.000
 4679.00   20.87624   3.79278    0.000
 4680.00   24.08933   3.67817    0.000
 4681.00   25.94821   3.60773    0.000
 4682.00   26.74055   3.65904    0.000
 4683.00   29.11675   3.87628    0.000
 4684.00   32.59005   4.02738    0.000
 4685.00   33.51146   4.03250    0.000
 4686.00   32.88298   4.01712    0.000
 4687.00   27.49300   3.92822    0.000
 4688.00   19.57839   3.83813    0.000
 4689.00   20.97996   3.89775    0.000
 4690.00   26.66840   3.93641    0.000
 4691.00   27.87161   3.85767    0.000
 4692.00   27.29768   3.84048    0.000
 4693.00   25.69022   3.90455    0.000
 4694.00   23.73378   4.00151    0.000
 4695.00   22.71240   4.17425    0.000
 4696.00   21.95639   4.30435    0.000
 4697.00   26.26778   4.18306    0.000
 4698.00   31.76550   3.84632    0.000
 4699.00   26.69115   3.64802    0.000
 4700.00   19.62793   3.72393    0.000
 4701.00   23.84382   3.77820    0.000
 4702.00   29.70021   3.69211    0.000
 4703.00   23.88452   3.62828    0.000
 4704.00   16.83479   3.77957    0.000
 4705.00   18.22721   3.97807    0.000
 4706.00   20.19934   3.96765    0.000
 4707.00   19.20704   3.80545    0.000
 4708.00   18.11390   3.71676    0.000
 4709.00   23.94382   3.72160    0.000
 4710.00   29.43059   3.86634    0.000
 4711.00   23.40860   4.15120    0.000
 4712.00   18.19926   4.24440    0.000
 4713.00   25.45909   4.06969    0.000
 4714.00   31.09437   3.80767    0.000
 4715.00   20.80016   3.77820    0.000
 4716.00   12.69316   4.09756    0.000
 4717.00   20.05115   4.38196    0.000
 4718.00   26.28654   4.48993    0.000
 4719.00   26.41435   4.62288    0.000
 4720.00   26.39020   4.73333    0.000
 4721.00   25.70380   4.68654    0.000
 4722.00   23.87671   4.51466    0.000
 4723.00   17.95748   4.43842    0.000
 4724.00   15.13062   4.60062    0.000
 4725.00   21.61323   4.77005    0.000
 4726.00   27.55726   4.63881    0.000
 4727.00   32.12123   4.15889    0.000
 4728.00   34.78109   3.71901    0.000
 4729.00   33.24345   3.63285    0.000
 4730.00   30.03467   3.75590    0.000
 4731.00   23.63094   3.91465    0.000
 4732.00   18.60074   4.10914    0.000
 4733.00   15.86178   4.23290    0.000
 4734.00   15.34659   4.27759    0.000
 4735.00   18.08286   4.34744    0.000
 4736.00   17.63249   4.22460    0.000
 4737.00   13.08518   4.10603    0.000
 4738.00   13.92241   4.38506    0.000
 4739.00   20.85918   4.64144    0.000
 4740.00   22.45435   4.53715    0.000
 4741.00   18.71287   4.37873    0.000
 4742.00   21.43936   4.40615    0.000
 4743.00   29.86508   4.54163    0.000
 4744.00   28.71400   4.55986    0.000
 4745.00   20.12797   4.48155    0.000
 4746.00   18.07089   4.59092    0.000
 4747.00   20.47056   4.76018    0.000
 4748.00   18.66906   4.74487    0.000
 4749.00   14.35407   4.70239    0.000
 4750.00   18.34036   4.74076    0.000
 4751.00   26.65987   4.70981    0.000
 4752.00   23.61157   4.55162    0.000
 4753.00   15.41756   4.41927    0.000
 4754.00   13.68683   4.34345    0.000
 4755.00   14.47266   4.34658    0.000
 4756.00   18.57171   4.39487    0.000
 4757.00   23.76861   4.43486    0.000
 4758.00   26.81454   4.46934    0.000
 4759.00   29.26252   4.54747    0.000
 4760.00   25.40668   4.63460    0.000
 4761.00   20.10885   4.51373    0.000
 4762.00   19.11984   4.25877    0.000
 4763.00   18.92002   4.16812    0.000
 4764.00   19.64339   4.13007    0.000
 4765.00   20.49676   3.95270    0.000
 4766.00   18.07157   3.81499    0.000
 4767.00   15.31386   3.95047    0.000
 4768.00   21.20795   4.23696    0.000
 4769.00   27.66136   4.52123    0.000
 4770.00   28.86984   4.67395    0.000
 4771.00   29.90974   4.52942    0.000
 4772.00   25.99170   4.34798    0.000
 4773.00   22.39043   4.43815    0.000
 4774.00   27.96865   4.72936    0.000
 4775.00   32.76421   4.87380    0.000
 4776.00   26.24946   4.79745    0.000
 4777.00   20.16418   4.82985    0.000
 4778.00   18.11938   4.91052    0.000
 4779.00   17.20150   4.83680    0.000
 4780.00   23.99952   4.75213    0.000
 4781.00   29.74574   4.70595    0.000
 4782.00   29.92030   4.54122    0.000
 4783.00   29.17348   4.30617    0.000
 4784.00   24.50272   4.32694    0.000
 4785.00   22.30682   4.49215    0.000
 4786.00   28.80817   4.40275    0.000
 4787.00   33.49247   4.34983    0.000
 4788.00   32.80845   4.48167    0.000
 4789.00   29.86486   4.46880    0.000
 4790.00   21.23134   4.41580    0.000
 4791.00   16.41538   4.50905    0.000
 4792.00   19.87795   4.65934    0.000
 4793.00   22.43866   4.89956    0.000
 4794.00   23.30192   5.20170    0.000
 4795.00   24.43715   5.33216    0.000
 4796.00   26.01927   5.19942    0.000
 4797.00   29.05133   4.97874    0.000
 4798.00   34.17263   4.75767    0.000
 4799.00   34.21744   4.55824    0.000
 4800.00   27.82858   4.52912    0.000
 4801.00   22.54908   4.77191    0.000
 4802.00   18.50855   5.10433    0.000
 4803.00   18.77225   5.23671    0.000
 4804.00   23.27582   5.08089    0.000
 4805.00   22.36019   4.81681    0.000
 4806.00   16.73677   4.70391    0.000
 4807.00   16.51293   4.61587    0.000
 4808.00   20.42122   4.51844    0.000
 4809.00   23.45914   4.62530    0.000
 4810.00   25.91160   4.83787    0.000
 4811.00   23.61674   4.92300    0.000
 4812.00   18.52427   4.89495    0.000
 4813.00   17.62336   4.85750    0.000
 4814.00   18.87627   4.86092    0.000
 4815.00   20.76581   4.90887    0.000
 4816.00   22.93880   5.01607    0.000
 4817.00   20.72591   5.15275    0.000
 4818.00   16.83509   5.24565    0.000
 4819.00   20.64944   5.32985    0.000
 4820.00   26.96889   5.34303    0.000
 4821.00   24.13164   5.25324    0.000
 4822.00   18.80147   5.03370    0.000
 4823.00   17.76958   4.64474    0.000
 4824.00   17.69808   4.49813    0.000
 4825.00   18.37078   4.78518    0.000
 4826.00   19.17612   5.05735    0.000
 4827.00   20.18913   5.04020    0.000
 4828.00   21.23044   4.88220    0.000
 4829.00   23.46943   4.84119    0.000
 4830.00   25.82476   4.93757    0.000
 4831.00   17.52594   4.83065    0.000
 4832.00    8.58086   4.58290    0.000
 4833.00   14.00055   4.66686    0.000
 4834.00   19.77092   4.97814    0.000
 4835.00   20.11615   5.12148    0.000
 4836.00   20.46198   5.08220    0.000
 4837.00   20.82341   5.07796    0.000
 4838.00   20.75591   5.02240    0.000
 4839.00   14.83287   4.80433    0.000
 4840.00   10.22546   4.66484    0.000
 4841.00   17.50988   4.76789    0.000
 4842.00   23.31303   4.85379    0.000
 4843.00   19.28774   4.73734    0.000
 4844.00   16.05546   4.78558    0.000
 4845.00   16.91522   5.10327    0.000
 4846.00   19.52150   5.30316    0.000
 4847.00   29.39807   5.18608    0.000
 4848.00   34.53649   4.87627    0.000
 4849.00   23.35974   4.75679    0.000
 4850.00   16.31267   4.97875    0.000
 4851.00   21.24137   5.12327    0.000
 4852.00   24.88753   5.09846    0.000
 4853.00   25.35950   5.08867    0.000
 4854.00   26.21988   4.85932    0.000
 4855.00   27.90888   4.44710    0.000
 4856.00   26.81781   4.40595    0.000
 4857.00   20.57498   4.74088    0.000
 4858.00   16.09309   4.85137    0.000
 4859.00   14.46175   4.55240    0.000
 4860.00   16.75996   4.04830    0.000
 4861.00   24.63827   3.65831    0.000
 4862.00   31.28350   3.81508    0.000
 4863.00   36.38823   4.30159    0.000
 4864.00   38.29971   4.50986    0.000
 4865.00   36.69506   4.60683    0.000
 4866.00   33.21098   4.79238    0.000
 4867.00   27.90153   4.86401    0.000
 4868.00   21.25702   4.82024    0.000
 4869.00   13.46910   4.83625    0.000
 4870.00   11.65105   4.61591    0.000
 4871.00   14.33624   4.06757    0.000
 4872.00   15.39865   3.90950    0.000
 4873.00   15.38540   4.35027    0.000
 4874.00   17.38642   4.71311    0.000
 4875.00   20.55657   4.73292    0.000
 4876.00   15.99815   4.79946    0.000
 4877.00    7.53065   4.96089    0.000
 4878.00   11.11172   5.07527    0.000
 4879.00   19.96879   5.33703    0.000
 4880.00   25.60617   5.38745    0.000
 4881.00   30.03342   5.00021    0.000
 4882.00   32.42754   4.82371    0.000
 4883.00   34.17319   5.04276    0.000
 4884.00   33.97034   5.05536    0.000
 4885.00   33.24810   4.69813    0.000
 4886.00   27.15420   4.42593    0.000
 4887.00   19.88835   4.50889    0.000
 4888.00   19.61991   4.71614    0.000
 4889.00   20.56445   4.73162    0.000
 4890.00   27.35747   4.39937    0.000
 4891.00   34.92076   4.01389    0.000
 4892.00   29.36167   4.31114    0.000
 4893.00   22.58332   5.05101    0.000
 4894.00   30.26847   5.57860    0.000
 4895.00   38.77365   5.85224    0.000
 4896.00   34.76201   5.90501    0.000
 4897.00   30.51323   5.84335    0.000
 4898.00   31.54312   5.78223    0.000
 4899.00   32.27863   5.55369    0.000
 4900.00   26.02678   5.29409    0.000
 4901.00   20.92367   5.34212    0.000
 4902.00   30.67398   5.38394    0.000
 4903.00   38.96204   5.18708    0.000
 4904.00   34.53592   5.15095    0.000
 4905.00   30.37216   5.47916    0.000
 4906.00   27.89661   5.81791    0.000
 4907.00   25.59655   5.77261    0.000
 4908.00   24.17904   5.44206    0.000
 4909.00   24.68895   5.07761    0.000
 4910.00   33.04398   4.83830    0.000
 4911.00   40.15268   4.89018    0.000
 4912.00   43.05534   5.14017    0.000
 4913.00   41.89922   5.33929    0.000
 4914.00   29.18812   5.48801    0.000
 4915.00   19.26387   5.69023    0.000
 4916.00   16.11946   5.77336    0.000
 4917.00   13.25735   5.50058    0.000
 4918.00   10.98785   4.84680    0.000
 4919.00   10.49605   4.12503    0.000
 4920.00   13.24787   3.77671    0.000
 4921.00   18.56263   4.04159    0.000
 4922.00   27.96470   4.68709    0.000
 4923.00   32.90163   5.08524    0.000
 4924.00   31.58954   5.01388    0.000
 4925.00   29.68560   4.94942    0.000
 4926.00   27.05275   5.25844    0.000
 4927.00   23.71785   5.57184    0.000
 4928.00   19.62080   5.73895    0.000
 4929.00   18.95382   5.95630    0.000
 4930.00   21.57145   6.03472    0.000
 4931.00   21.18817   5.99569    0.000
 4932.00   18.27105   5.83447    0.000
 4933.00   16.95394   5.37248    0.000
 4934.00   16.82646   5.12243    0.000
 4935.00   20.10954   5.40848    0.000
 4936.00   25.62016   5.56215    0.000
 4937.00   26.10650   5.18574    0.000
 4938.00   23.72071   4.62720    0.000
 4939.00   23.00364   4.46865    0.000
 4940.00   23.11730   4.93129    0.000
 4941.00   26.04529   5.52211    0.000
 4942.00   30.18522   5.76798    0.000
 4943.00   29.41097   5.91058    0.000
 4944.00   26.82242   6.02731    0.000
 4945.00   23.94930   5.87218    0.000
 4946.00   20.98714   5.69609    0.000
 4947.00   21.83535   5.82657    0.000
 4948.00   23.67774   6.00933    0.000
 4949.00   19.03979   6.05040    0.000
 4950.00   13.02187   6.09547    0.000
 4951.00   24.79244   6.20966    0.000
 4952.00   39.56039   6.15893    0.000
 4953.00   40.21407   5.93104    0.000
 4954.00   39.07246   5.77272    0.000
 4955.00   25.68801   5.67031    0.000
 4956.00   11.21750   5.23853    0.000
 4957.00   15.90960   4.38357    0.000
 4958.00   21.61284   4.15155    0.000
 4959.00   16.10848   4.94026    0.000
 4960.00   10.50835   5.69591    0.000
 4961.00   14.19564   5.84615    0.000
 4962.00   18.04609   5.75987    0.000
 4963.00   25.44483   5.81156    0.000
 4964.00   31.95721   5.72962    0.000
 4965.00   27.58816   5.32790    0.000
 4966.00   24.35042   5.05815    0.000
 4967.00   30.58600   5.11013    0.000
 4968.00   35.04797   5.20254    0.000
 4969.00   28.43501   5.32814    0.000
 4970.00   23.19575   5.44929    0.000
 4971.00   24.69184   5.58652    0.000
 4972.00   26.71030   5.77363    0.000
 4973.00   30.80829   5.88210    0.000
 4974.00   33.45126   5.95886    0.000
 4975.00   31.28087   5.94540    0.000
 4976.00   28.98417   5.83355    0.000
 4977.00   26.33435   5.68488    0.000
 4978.00   24.81908   5.40220    0.000
 4979.00   26.01724   5.21707    0.000
 4980.00   24.96788   5.25156    0.000
 4981.00   19.27612   5.08927    0.000
 4982.00   16.10725   4.58571    0.000
 4983.00   17.47129   4.29518    0.000
 4984.00   17.28817   4.50161    0.000
 4985.00   14.67416   4.81287    0.000
 4986.00   15.27296   5.09374    0.000
 4987.00   20.30334   5.46810    0.000
 4988.00   25.84067   5.66603    0.000
 4989.00   31.99353   5.60716    0.000
 4990.00   32.54423   5.46022    0.000
 4991.00   27.09855   5.35813    0.000
 4992.00   25.94361   5.51275    0.000
 4993.00   28.83972   5.60232    0.000
 4994.00   28.39650   5.46976    0.000
 4995.00   25.17354   5.54462    0.000
 4996.00   22.89036   5.68634    0.000
 4997.00   21.29589   5.67570    0.000
 4998.00   22.39562   5.58317    0.000
 4999.00   25.22914   5.27964    0.000
 5000.00   25.67722   4.97705    0.000
 5001.00   24.78236   4.93535    0.000
 5002.00   24.94649   5.00269    0.000
 5003.00   25.62945   5.07011    0.000
 5004.00   27.38947   5.02289    0.000
 5005.00   29.60554   4.72429    0.000
 5006.00   30.06739   4.41457    0.000
 5007.00   29.89315   4.59605    0.000
 5008.00   27.60807   5.17737    0.000
 5009.00   24.67547   5.50605    0.000
 5010.00   20.83102   5.46377    0.000
 5011.00   16.75376   5.27194    0.000
 5012.00   23.24880   4.89141    0.000
 5013.00   31.94049   4.52674    0.000
 5014.00   28.16320   4.36810    0.000
 5015.00   22.34480   4.55948    0.000
 5016.00   25.04681   4.92085    0.000
 5017.00   28.79448   5.00531    0.000
 5018.00   27.81637   4.93153    0.000
 5019.00   26.43875   5.03188    0.000
 5020.00   30.62599   5.16667    0.000
 5021.00   35.08515   5.09210    0.000
 5022.00   29.21660   4.88679    0.000
 5023.00   23.33777   4.96673    0.000
 5024.00   26.57074   5.30369    0.000
 5025.00   29.45831   5.47849    0.000
 5026.00   25.41872   5.44867    0.000
 5027.00   21.89539   5.18966    0.000
 5028.00   24.40300   5.07052    0.000
 5029.00   26.66614   5.38866    0.000
 5030.00   26.95566   5.66098    0.000
 5031.00   27.71216   5.78079    0.000
 5032.00   31.30023   5.99347    0.000
 5033.00   34.13485   6.22791    0.000
 5034.00   33.36612   6.17760    0.000
 5035.00   30.84886   5.66621    0.000
 5036.00   21.52125   5.16881    0.000
 5037.00   16.11020   5.25381    0.000
 5038.00   23.40246   5.40017    0.000
 5039.00   29.82579   5.07539    0.000
 5040.00   33.86387   4.48605    0.000
 5041.00   35.24917   4.08158    0.000
 5042.00   30.39658   4.45288    0.000
 5043.00   25.92098   5.27030    0.000
 5044.00   22.21172   5.79605    0.000
 5045.00   20.51090   6.14086    0.000
 5046.00   22.36369   6.39922    0.000
 5047.00   22.98005   6.24750    0.000
 5048.00   21.68237   5.66475    0.000
 5049.00   21.30369   5.18572    0.000
 5050.00   22.17437   5.12840    0.000
 5051.00   20.50850   5.22965    0.000
 5052.00   15.80653   5.29601    0.000
 5053.00   14.25440   5.49810    0.000
 5054.00   16.02640   5.82299    0.000
 5055.00   15.86965   6.05460    0.000
 5056.00   13.91748   6.07584    0.000
 5057.00   17.83557   6.06470    0.000
 5058.00   26.57097   6.15015    0.000
 5059.00   27.92448   6.18632    0.000
 5060.00   23.94609   6.23880    0.000
 5061.00   21.54367   6.42077    0.000
 5062.00   20.14046   6.50239    0.000
 5063.00   16.76457   6.26045    0.000
 5064.00   12.29504   5.65411    0.000
 5065.00   12.91948   5.20842    0.000
 5066.00   15.99992   5.38020    0.000
 5067.00   20.55254   5.57931    0.000
 5068.00   25.71803   5.46674    0.000
 5069.00   26.83179   5.50690    0.000
 5070.00   26.50284   5.81326    0.000
 5071.00   27.45764   5.84514    0.000
 5072.00   28.79855   5.53999    0.000
 5073.00   23.35736   5.55243    0.000
 5074.00   16.22217   5.83825    0.000
 5075.00   15.58975   5.82664    0.000
 5076.00   16.27505   5.68430    0.000
 5077.00   21.73557   5.79840    0.000
 5078.00   27.95501   5.74647    0.000
 5079.00   21.61404   5.10934    0.000
 5080.00   13.78734   4.61921    0.000
 5081.00   17.68827   4.82110    0.000
 5082.00   22.53208   5.17548    0.000
 5083.00   21.32402   5.24958    0.000
 5084.00   19.84368   5.34100    0.000
 5085.00   18.50562   5.61808    0.000
 5086.00   17.19023   5.81133    0.000
 5087.00   16.92030   5.82478    0.000
 5088.00   16.71027   5.83248    0.000
 5089.00   17.61446   5.93463    0.000
 5090.00   18.57004   6.00880    0.000
 5091.00   20.09800   6.01449    0.000
 5092.00   21.47695   6.14374    0.000
 5093.00   21.69498   6.37151    0.000
 5094.00   21.82962   6.37956    0.000
 5095.00   21.47296   6.12607    0.000
 5096.00   21.35762   5.86497    0.000
 5097.00   22.36853   5.64559    0.000
 5098.00   22.48277   5.31418    0.000
 5099.00   19.17924   5.03099    0.000
 5100.00   16.16869   5.26801    0.000
 5101.00   14.09001   5.79742    0.000
 5102.00   13.79178   6.04811    0.000
 5103.00   18.29398   5.94595    0.000
 5104.00   21.99485   5.76786    0.000
 5105.00   23.84285   5.71055    0.000
 5106.00   24.39878   5.67141    0.000
 5107.00   22.36983   5.48249    0.000
 5108.00   20.67995   5.36714    0.000
 5109.00   19.58090   5.38835    0.000
 5110.00   19.52535   5.33283    0.000
 5111.00   21.06144   5.48077    0.000
 5112.00   24.32358   5.78722    0.000
 5113.00   29.89859   5.90052    0.000
 5114.00   33.27029   6.01031    0.000
 5115.00   34.04208   6.14516    0.000
 5116.00   30.63575   6.21994    0.000
 5117.00   22.88205   6.39556    0.000
 5118.00   18.84399   6.52358    0.000
 5119.00   18.21610   6.43012    0.000
 5120.00   19.41508   6.19935    0.000
 5121.00   22.09198   5.95356    0.000
 5122.00   21.60172   5.72442    0.000
 5123.00   18.85683   5.34876    0.000
 5124.00   19.95147   5.06790    0.000
 5125.00   23.44448   5.18889    0.000
 5126.00   22.97277   5.38923    0.000
 5127.00   20.33674   5.38551    0.000
 5128.00   20.01857   5.31881    0.000
 5129.00   20.80003   5.31205    0.000
 5130.00   19.76140   5.42849    0.000
 5131.00   17.97789   5.72244    0.000
 5132.00   18.51157   5.96040    0.000
 5133.00   19.85535   5.97787    0.000
 5134.00   24.11730   6.01249    0.000
 5135.00   29.23954   6.24056    0.000
 5136.00   29.21234   6.22760    0.000
 5137.00   27.92723   5.88669    0.000
 5138.00   29.84524   5.57204    0.000
 5139.00   32.39602   5.37288    0.000
 5140.00   23.85832   5.60504    0.000
 5141.00   13.61074   5.91440    0.000
 5142.00   12.58740   5.62449    0.000
 5143.00   12.61457   5.40684    0.000
 5144.00   21.55675   5.68303    0.000
 5145.00   31.17904   5.76029    0.000
 5146.00   28.24483   5.52495    0.000
 5147.00   24.79397   5.37404    0.000
 5148.00   23.48676   5.44524    0.000
 5149.00   22.31204   5.66077    0.000
 5150.00   25.97273   5.69392    0.000
 5151.00   29.34212   5.52314    0.000
 5152.00   27.66389   5.41011    0.000
 5153.00   25.74456   5.39113    0.000
 5154.00   21.26036   5.45512    0.000
 5155.00   17.38151   5.70405    0.000
 5156.00   18.05885   6.04536    0.000
 5157.00   19.00978   6.35014    0.000
 5158.00   21.52782   6.48364    0.000
 5159.00   23.72746   6.39494    0.000
 5160.00   24.47665   6.40071    0.000
 5161.00   24.55490   6.41925    0.000
 5162.00   22.12971   6.13474    0.000
 5163.00   20.46006   5.87628    0.000
 5164.00   21.14763   5.69493    0.000
 5165.00   21.41389   5.15223    0.000
 5166.00   20.56428   4.27705    0.000
 5167.00   20.60670   3.52462    0.000
 5168.00   22.67754   3.44797    0.000
 5169.00   23.47880   4.09289    0.000
 5170.00   21.78018   4.71805    0.000
 5171.00   21.43060   4.42843    0.000
 5172.00   23.39620   3.49055    0.000
 5173.00   22.19019   3.22341    0.000
 5174.00   16.21736   4.11876    0.000
 5175.00   12.47772   5.18676    0.000
 5176.00   11.68767   5.59638    0.000
 5177.00   12.96800   5.68745    0.000
 5178.00   16.65691   5.81297    0.000
 5179.00   18.33689   5.80375    0.000
 5180.00   17.95592   5.58418    0.000
 5181.00   18.39700   5.17775    0.000
 5182.00   19.58196   4.43015    0.000
 5183.00   19.68710   3.49058    0.000
 5184.00   18.93106   3.29671    0.000
 5185.00   17.85626   4.26966    0.000
 5186.00   16.55782   5.45760    0.000
 5187.00   19.46078   6.04540    0.000
 5188.00   24.94919   6.10422    0.000
 5189.00   24.18154   6.22246    0.000
 5190.00   20.05128   6.42711    0.000
 5191.00   19.03189   5.96372    0.000
 5192.00   19.46456   5.15900    0.000
 5193.00   18.81068   5.10826    0.000
 5194.00   17.71971   5.55273    0.000
 5195.00   15.46570   5.68734    0.000
 5196.00   12.81253   5.78105    0.000
 5197.00   12.08353   6.10363    0.000
 5198.00   11.91044   6.36608    0.000
 5199.00   14.61282   6.52093    0.000
 5200.00   18.00196   6.58421    0.000
 5201.00   17.27950   6.48580    0.000
 5202.00   15.76554   6.31720    0.000
 5203.00   19.54353   6.15687    0.000
 5204.00   24.11274   5.70095    0.000
 5205.00   19.77173   5.00921    0.000
 5206.00   14.45489   4.74478    0.000
 5207.00   14.37658   4.85395    0.000
 5208.00   14.67655   4.73210    0.000
 5209.00   11.67319   4.72818    0.000
 5210.00    8.54650   5.18667    0.000
 5211.00    8.34170   5.82159    0.000
 5212.00    8.33030   6.42541    0.000
 5213.00   14.86521   6.76975    0.000
 5214.00   20.83939   6.71206    0.000
 5215.00   17.72214   6.31309    0.000
 5216.00   15.65932   6.00304    0.000
 5217.00   24.32928   6.11684    0.000
 5218.00   31.03811   6.51943    0.000
 5219.00   23.47560   6.85799    0.000
 5220.00   17.64958   6.97267    0.000
 5221.00   21.49817   7.02912    0.000
 5222.00   23.95050   6.98151    0.000
 5223.00   20.19152   6.65860    0.000
 5224.00   16.70853   6.11420    0.000
 5225.00   14.23384   5.53438    0.000
 5226.00   13.28611   5.01703    0.000
 5227.00   17.01207   4.88356    0.000
 5228.00   19.09644   5.59097    0.000
 5229.00   16.90928   6.50191    0.000
 5230.00   15.76477   6.87931    0.000
 5231.00   16.95213   6.94631    0.000
 5232.00   18.12125   6.67057    0.000
 5233.00   19.25505   6.19145    0.000
 5234.00   19.64429   6.12386    0.000
 5235.00   18.77496   6.42576    0.000
 5236.00   16.53696   6.88162    0.000
 5237.00   12.27190   7.28395    0.000
 5238.00   10.12910   7.37538    0.000
 5239.00   10.74930   7.23266    0.000
 5240.00   11.05306   7.12799    0.000
 5241.00   10.99385   7.16837    0.000
 5242.00   13.28587   7.17209    0.000
 5243.00   17.95617   7.15351    0.000
 5244.00   19.65762   7.37385    0.000
 5245.00   18.71044   7.51427    0.000
 5246.00   23.25302   6.98910    0.000
 5247.00   32.11139   6.24397    0.000
 5248.00   34.70621   6.21667    0.000
 5249.00   32.97033   6.48586    0.000
 5250.00   27.70944   6.27893    0.000
 5251.00   20.31165   6.14644    0.000
 5252.00   18.57452   6.48525    0.000
 5253.00   19.83294   6.79957    0.000
 5254.00   19.07404   6.69277    0.000
 5255.00   17.38877   6.40658    0.000
 5256.00   13.83772   6.68370    0.000
 5257.00    9.54903   7.36550    0.000
 5258.00   12.97323   7.75562    0.000
 5259.00   18.99555   7.74188    0.000
 5260.00   21.52110   7.43574    0.000
 5261.00   23.05685   6.95479    0.000
 5262.00   19.14674   6.34955    0.000
 5263.00   13.96539   5.76931    0.000
 5264.00   18.14779   5.37300    0.000
 5265.00   24.08590   5.08883    0.000
 5266.00   19.81319   5.02555    0.000
 5267.00   14.06129   5.53547    0.000
 5268.00   20.50745   5.76510    0.000
 5269.00   28.23665   4.90726    0.000
 5270.00   25.62454   4.33384    0.000
 5271.00   22.30753   5.17202    0.000
 5272.00   15.00659   6.27916    0.000
 5273.00    7.57202   6.64850    0.000
 5274.00    7.90434   6.61271    0.000
 5275.00    8.43491   6.44243    0.000
 5276.00   15.04545   6.54768    0.000
 5277.00   20.98967   7.19706    0.000
 5278.00   16.78825   7.73869    0.000
 5279.00   12.59409   7.74181    0.000
 5280.00    8.47077   7.36470    0.000
 5281.00    5.77030   6.93656    0.000
 5282.00   13.08938   6.65597    0.000
 5283.00   19.66540   6.46269    0.000
 5284.00   22.21238   6.50694    0.000
 5285.00   24.22380   7.13086    0.000
 5286.00   23.90790   7.90557    0.000
 5287.00   22.71608   8.14443    0.000
 5288.00   18.39011   7.93263    0.000
 5289.00   15.10177   7.83146    0.000
 5290.00   14.92982   8.02291    0.000
 5291.00   13.80347   8.18494    0.000
 5292.00   10.23692   8.06966    0.000
 5293.00    8.30431   7.82331    0.000
 5294.00    9.96616   7.74311    0.000
 5295.00   11.49511   7.66932    0.000
 5296.00   12.77049   7.16936    0.000
 5297.00   14.98279   6.35290    0.000
 5298.00   18.75509   5.99240    0.000
 5299.00   21.05961   6.51275    0.000
 5300.00   21.22198   7.10335    0.000
 5301.00   20.63156   7.09206    0.000
 5302.00   19.07508   7.05016    0.000
 5303.00   16.59684   7.44498    0.000
 5304.00   13.07630   8.00932    0.000
 5305.00   12.25705   8.34274    0.000
 5306.00   14.13181   8.27971    0.000
 5307.00   18.54958   7.99554    0.000
 5308.00   25.20411   7.93550    0.000
 5309.00   26.07931   8.18489    0.000
 5310.00   22.47577   8.36794    0.000
 5311.00   20.47835   8.32553    0.000
 5312.00   19.57527   8.16966    0.000
 5313.00   18.78094   8.01109    0.000
 5314.00   18.05155   7.95413    0.000
 5315.00   21.02614   7.93881    0.000
 5316.00   25.93039   7.81908    0.000
 5317.00   24.37685   7.74105    0.000
 5318.00   19.90619   7.80839    0.000
 5319.00   20.90234   7.81557    0.000
 5320.00   24.02239   7.77922    0.000
 5321.00   22.44703   7.78468    0.000
 5322.00   19.31950   7.71465    0.000
 5323.00   19.90771   7.39277    0.000
 5324.00   21.52620   6.97253    0.000
 5325.00   23.32739   7.01694    0.000
 5326.00   25.17026   7.14194    0.000
 5327.00   21.08116   6.40172    0.000
 5328.00   15.90926   5.26048    0.000
 5329.00   16.21316   5.30495    0.000
 5330.00   17.28505   6.49178    0.000
 5331.00   20.24093   7.41204    0.000
 5332.00   23.38688   7.55151    0.000
 5333.00   21.61384   7.48179    0.000
 5334.00   19.52526   7.78948    0.000
 5335.00   18.81102   8.17428    0.000
 5336.00   18.12735   8.20790    0.000
 5337.00   13.21045   8.07316    0.000
 5338.00    8.55235   7.98640    0.000
 5339.00   11.29193   7.61236    0.000
 5340.00   13.81600   6.89569    0.000
 5341.00   13.24841   6.68788    0.000
 5342.00   13.03968   7.29498    0.000
 5343.00   16.19011   7.85457    0.000
 5344.00   18.41628   7.96293    0.000
 5345.00   14.33941   7.74742    0.000
 5346.00   11.43390   7.53428    0.000
 5347.00   14.71287   7.60929    0.000
 5348.00   16.19259   7.49875    0.000
 5349.00   10.03185   7.21787    0.000
 5350.00    5.54638   7.38756    0.000
 5351.00    6.93318   7.93696    0.000
 5352.00    9.33369   8.30004    0.000
 5353.00   14.72218   8.35365    0.000
 5354.00   19.14321   8.50896    0.000
 5355.00   21.13333   8.80804    0.000
 5356.00   21.48944   8.89877    0.000
 5357.00   18.30937   8.87830    0.000
 5358.00   16.88945   8.85777    0.000
 5359.00   18.77596   8.82008    0.000
 5360.00   19.45923   8.73080    0.000
 5361.00   18.16899   8.47593    0.000
 5362.00   15.41285   8.20445    0.000
 5363.00   10.54833   8.15417    0.000
 5364.00    9.72595   8.08577    0.000
 5365.00   14.01716   7.86347    0.000
 5366.00   15.28827   7.80694    0.000
 5367.00   13.19245   7.84331    0.000
 5368.00   13.96680   7.81848   -2.000
 5369.00   17.56341   7.52476   -2.000
 5370.00   20.64378   6.81912   -2.000
 5371.00   23.27649   6.28043   -2.000
 5372.00   25.88368   6.63547   -2.000
 5373.00   28.47139   7.65796   -2.000
 5374.00   28.14499   8.39646   -2.000
 5375.00   25.86196   8.64267   -2.000
 5376.00   23.68160   8.51961   -2.000
 5377.00   21.56164   8.28035   -2.000
 5378.00   20.53326   8.35524   -2.000
 5379.00   20.06470   8.56809   -2.000
 5380.00   19.59167   8.52099   -2.000
 5381.00   19.11667   8.34013   -2.000
 5382.00   22.04383   8.18335   -2.000
 5383.00   26.26970   8.01951    0.000
 5384.00   25.32403   8.09283    0.000
 5385.00   22.70102   8.37235    0.000
 5386.00   23.04663   8.46506    0.000
 5387.00   24.19834   8.37669    0.000
 5388.00   22.84749   8.23592    0.000
 5389.00   20.93914   7.96416    0.000
 5390.00   17.45161   7.66859    0.000
 5391.00   13.68361   7.55338    0.000
 5392.00   13.61601   7.58824    0.000
 5393.00   14.05046   7.62664    0.000
 5394.00   11.55736   7.63361    0.000
 5395.00    8.78140   7.61692    0.000
 5396.00    9.28228   7.23774    0.000
 5397.00    9.98029   6.68220    0.000
 5398.00   13.76416   6.95770    0.000
 5399.00   17.61686   7.71758    0.000
 5400.00   19.54921   7.95454    0.000
 5401.00   21.33796   7.94336    0.000
 5402.00   19.42394   8.10938    0.000
 5403.00   17.36271   7.96532    0.000
 5404.00   13.30572   7.23204    0.000
 5405.00    9.71900   6.45031    0.000
 5406.00   10.36203   6.30341    0.000
 5407.00   11.02186   6.89999    0.000
 5408.00   11.79279   7.44844    0.000
 5409.00   12.51901   7.30709    0.000
 5410.00   13.01528   7.00513    0.000
 5411.00   13.43176   7.37726    0.000
 5412.00   13.51702   8.07487    0.000
 5413.00   13.78281   8.39240    0.000
 5414.00   14.66868   8.30965    0.000
 5415.00   15.07461   8.24715    0.000
 5416.00   14.09196   8.51121    0.000
 5417.00   13.35194   8.83753    0.000
 5418.00   13.21109   8.84687    0.000
 5419.00   12.31514   8.58574    0.000
 5420.00    9.81150   8.26313    0.000
 5421.00    9.48682   8.20918    0.000
 5422.00   13.19211   8.44913    0.000
 5423.00   15.14285   8.36586    0.000
 5424.00   14.25870   7.94730    0.000
 5425.00   12.87872   8.03280    0.000
 5426.00   10.79594   8.59990    0.000
 5427.00   11.99595   8.98145    0.000
 5428.00   17.28989   8.62433    0.000
 5429.00   20.10717   7.56613    0.000
 5430.00   20.20218   7.13766    0.000
 5431.00   19.94145   7.77374    0.000
 5432.00   19.33581   8.06307    0.000
 5433.00   18.27092   7.66892    0.000
 5434.00   16.81338   7.28767    0.000
 5435.00   15.45874   7.21834    0.000
 5436.00   14.18157   7.48031    0.000
 5437.00   13.82727   7.92975    0.000
 5438.00   14.08356   8.51323    0.000
 5439.00   13.41122   8.98792    0.000
 5440.00   12.20090   9.19928    0.000
 5441.00   14.39683   9.23132    0.000
 5442.00   18.31221   9.20947    0.000
 5443.00   20.39068   9.19648    0.000
 5444.00   21.66645   8.96671    0.000
 5445.00   20.29580   8.34608    0.000
 5446.00   17.93270   7.45401    0.000
 5447.00   18.63229   6.98801    0.000
 5448.00   20.30634   7.52299    0.000
 5449.00   17.99548   8.32515    0.000
 5450.00   14.62525   8.68247    0.000
 5451.00    9.55186   8.66288    0.000
 5452.00    4.10803   8.51679    0.000
 5453.00    7.60741   8.30439    0.000
 5454.00   12.65161   7.85142    0.000
 5455.00   13.71937   7.21338    0.000
 5456.00   14.26567   7.11687    0.000
 5457.00   11.50980   7.84288    0.000
 5458.00    8.44885   8.60111    0.000
 5459.00    9.86970   8.83599    0.000
 5460.00   11.54244   8.61044    0.000
 5461.00   13.93888   8.31007    0.000
 5462.00   16.35941   8.02757    0.000
 5463.00   19.60499   7.74489    0.000
 5464.00   22.60945   7.92733    0.000
 5465.00   19.95489   8.37370    0.000
 5466.00   17.52354   8.46933    0.000
 5467.00   17.95939   8.44760    0.000
 5468.00   17.96334   8.56875    0.000
 5469.00   14.22980   8.50775    0.000
 5470.00   11.16739   8.22232    0.000
 5471.00   12.40697   8.16105    0.000
 5472.00   13.23891   8.26581    0.000
 5473.00   12.02736   8.07207    0.000
 5474.00   11.49512   7.90918    0.000
 5475.00   13.72007   7.89222    0.000
 5476.00   14.97702   7.41787    0.000
 5477.00   12.97540   7.04296    0.000
 5478.00   10.51174   7.62410   -2.000
 5479.00    6.73567   8.38978   -2.000
 5480.00    4.95081   8.32729   -2.000
 5481.00    7.99970   7.72349   -2.000
 5482.00   11.74935   7.56058   -2.000
 5483.00   16.96703   7.94780   -2.000
 5484.00   19.87771   8.47148   -2.000
 5485.00   18.58712   8.88702   -2.000
 5486.00   19.51073   8.82091   -2.000
 5487.00   23.95885   8.29080   -2.000
 5488.00   28.00591   8.03002   -2.000
 5489.00   31.49267   8.24624   -2.000
 5490.00   27.85807   8.37977   -2.000
 5491.00   15.46858   8.50795   -2.000
 5492.00   16.01808   8.66199   -2.000
 5493.00   30.58961   8.50318   -2.000
 5494.00   36.18816   8.35990   -2.000
 5495.00   33.20951   8.54831   -2.000
 5496.00   27.29227   8.56950   -2.000
 5497.00   18.89823   8.23449   -2.000
 5498.00   17.12002   8.27503   -2.000
 5499.00   20.25189   8.78894   -2.000
 5500.00   20.18614   8.89734   -2.000
 5501.00   18.03582   8.44668   -2.000
 5502.00   14.53468   8.14227    0.000
 5503.00   10.26284   8.22273    0.000
 5504.00    8.39334   8.36550    0.000
 5505.00    7.71741   8.27789    0.000
 5506.00   10.73139   7.91591    0.000
 5507.00   15.33099   7.91930    0.000
 5508.00   17.13575   8.42719    0.000
 5509.00   17.91098   8.68870    0.000
 5510.00   18.30733   8.57771    0.000
 5511.00   18.58546   8.28754    0.000
 5512.00   14.92472   7.84314    0.000
 5513.00   10.23904   7.65501    0.000
 5514.00   12.76876   7.78785    0.000
 5515.00   16.83029   7.99205    0.000
 5516.00   15.75704   8.19635    0.000
 5517.00   13.82166   8.44781    0.000
 5518.00   15.38126   8.88092    0.000
 5519.00   17.38344   9.17304    0.000
 5520.00   15.20646   9.10575    0.000
 5521.00   12.66093   8.97089    0.000
 5522.00   12.84232   8.95309    0.000
 5523.00   13.16627   8.97843    0.000
 5524.00   13.35446   8.96714    0.000
 5525.00   13.52513   8.86381    0.000
 5526.00   12.56233   8.65594    0.000
 5527.00   11.69890   8.25141    0.000
 5528.00   12.97438   7.82203    0.000
 5529.00   14.08676   7.98630    0.000
 5530.00   13.20934   8.60544    0.000
 5531.00   12.51943   8.92940    0.000
 5532.00   13.39230   8.85966    0.000
 5533.00   14.21921   8.76335    0.000
 5534.00   14.76022   8.69426    0.000
 5535.00   14.96303   8.55717    0.000
 5536.00   13.51279   8.59942    0.001
 5537.00   12.55817   8.70693   -1.000
 5538.00   13.57119   8.68504   -1.000
 5539.00   14.05681   8.82022   -1.000
 5540.00   12.80209   9.12685   -1.000
 5541.00   12.17238   9.31531   -1.000
 5542.00   13.28579   9.19409   -1.000
 5543.00   14.33079   8.90781    0.002
 5544.00   15.21252   8.86212    0.001
 5545.00   15.50244   8.95022    0.000
 5546.00   14.57240   8.86279    0.000
 5547.00   12.58915   8.92444    0.000
 5548.00    8.71722   9.29415    0.000
 5549.00    8.72509   9.53296    0.000
 5550.00   14.81752   9.53794    0.000
 5551.00   17.85535   9.50950    0.000
 5552.00   16.68751   9.40106    0.000
 5553.00   15.14544   9.16856    0.000
 5554.00   13.14984   8.95013    0.000
 5555.00   13.87148   8.95951    0.000
 5556.00   17.49640   9.10156    0.000
 5557.00   18.03955   9.08812    0.000
 5558.00   15.67823   9.00873    0.000
 5559.00   13.57642   9.08030    0.000
 5560.00   11.69023   9.13374    0.000
 5561.00   12.06896   9.04079    0.000
 5562.00   14.10451   8.83858    0.000
 5563.00   13.90206   8.73490    0.000
 5564.00   12.26207   8.86874    0.000
 5565.00   12.21581   8.85213    0.000
 5566.00   13.06505   8.61492    0.000
 5567.00   16.10930   8.58284    0.000
 5568.00   20.22681   8.68999    0.000
 5569.00   18.95189   8.62913    0.000
 5570.00   15.39851   8.68364    0.000
 5571.00   12.63905   8.98618    0.000
 5572.00   10.16681   8.83096    0.000
 5573.00    8.36714   8.50622    0.000
 5574.00    6.77327   8.81218    0.000
 5575.00    7.09075   9.13763    0.000
 5576.00    7.89490   9.06521    0.000
 5577.00    8.57507   9.12098    0.000
 5578.00    9.22958   9.19223    0.000
 5579.00    9.76516   9.12932    0.000
 5580.00   10.28135   9.22770    0.000
 5581.00   10.63022   9.24975    0.000
 5582.00   10.95865   9.07551    0.000
 5583.00   13.52293   9.03751    0.000
 5584.00   16.27505   8.98004    0.000
 5585.00   15.91621   8.69769    0.000
 5586.00   15.40688   8.23482    0.000
 5587.00   14.73278   7.75307    0.000
 5588.00   13.98530   7.57844    0.000
 5589.00    9.03048   7.70857    0.000
 5590.00    4.32394   8.05060    0.000
 5591.00    4.54849   8.42779    0.000
 5592.00    4.96933   8.57305    0.000
 5593.00    7.66914   8.53459    0.000
 5594.00   10.30816   8.45722    0.000
 5595.00   12.45870   8.71385    0.000
 5596.00   14.13458   9.30952    0.000
 5597.00   12.94289   9.37071    0.000
 5598.00   12.15978   8.82838    0.000
 5599.00   13.32464   8.52733    0.000
 5600.00   14.18577   8.50321    0.000
 5601.00   13.86716   8.33360    0.000
 5602.00   13.25817   8.14924    0.000
 5603.00   11.70962   8.23939    0.000
 5604.00   10.27676   8.75625    0.000
 5605.00    9.16073   9.34012    0.000
 5606.00    8.87953   9.68851    0.000
 5607.00   10.55723   9.78943    0.000
 5608.00   11.64649   9.71100    0.000
 5609.00   11.54198   9.60505    0.000
 5610.00   11.32246   9.56571    0.000
 5611.00   10.89985   9.65985    0.000
 5612.00   11.58518   9.83360    0.000
 5613.00   13.98247   9.81677    0.000
 5614.00   14.84319   9.17756    0.000
 5615.00   13.61871   8.11396    0.000
 5616.00   12.01591   7.84455    0.000
 5617.00    9.96107   8.52079    0.000
 5618.00    9.28370   8.98505    0.000
 5619.00   10.05743   8.92852    0.000
 5620.00   10.07850   8.86202    0.000
 5621.00    9.40018   9.09341    0.000
 5622.00    9.60689   9.34954    0.000
 5623.00   10.53858   9.15554    0.000
 5624.00   12.41242   8.49323    0.000
 5625.00   14.96553   8.11294    0.000
 5626.00   14.17404   8.45210    0.000
 5627.00   11.26591   8.90065    0.000
 5628.00   11.82743   9.10622    0.000
 5629.00   14.30877   9.37132    0.000
 5630.00   16.20927   9.64153    0.000
 5631.00   17.83029   9.71469    0.000
 5632.00   17.73031   9.64114    0.000
 5633.00   16.91541   9.52281    0.000
 5634.00   16.18233   9.35669    0.000
 5635.00   15.47833   9.18838    0.000
 5636.00   12.77495   9.00999    0.000
 5637.00    9.47175   8.85636    0.000
 5638.00   11.08933   8.90351    0.000
 5639.00   13.93260   9.12389    0.000
 5640.00   13.04806   9.16120    0.000
 5641.00   11.41050   8.91765    0.000
 5642.00   10.72302   8.83532    0.000
 5643.00   10.18597   8.98828    0.000
 5644.00    9.78183   9.09750    0.000
 5645.00    9.39333   9.18983    0.000
 5646.00   12.31174   9.28529    0.000
 5647.00   15.49431   9.38477    0.000
 5648.00   14.43020   9.39932    0.000
 5649.00   13.17708   9.26892    0.000
 5650.00   13.51158   9.22543    0.000
 5651.00   13.89183   9.44525    0.000
 5652.00   15.62085   9.71033    0.000
 5653.00   17.12533   9.72208    0.000
 5654.00   14.49171   9.38890    0.000
 5655.00   12.01364   9.13971    0.000
 5656.00   11.25796   9.33677    0.000
 5657.00   10.56947   9.24680    0.000
 5658.00   10.40218   8.47177    0.000
 5659.00    9.85312   8.18442    0.000
 5660.00    7.06283   8.78865    0.000
 5661.00    4.38501   9.11595    0.000
 5662.00    2.23041   8.86481    0.000
 5663.00    1.51785   8.82798    0.000
 5664.00    6.28705   9.23522    0.000
 5665.00    9.86550   9.61072    0.000
 5666.00    9.66567   9.64566    0.000
 5667.00    9.94045   9.37584    0.000
 5668.00   11.49200   9.17545    0.000
 5669.00   13.77137   9.21929    0.000
 5670.00   17.73010   9.31067    0.000
 5671.00   20.37382   9.37492    0.000
 5672.00   20.39201   9.64048    0.000
 5673.00   18.89808  10.02562    0.000
 5674.00   14.77432  10.11355    0.000
 5675.00   11.94432   9.93309    0.000
 5676.00   11.08403   9.95212    0.000
 5677.00   10.23617  10.11910    0.000
 5678.00    9.40491  10.03975    0.000
 5679.00    9.37591   9.83352    0.000
 5680.00   10.29191   9.78643    0.000
 5681.00   11.62831   9.72101    0.000
 5682.00   13.40138   9.38002    0.000
 5683.00   13.30204   9.17915    0.000
 5684.00   11.48727   9.43386    0.000
 5685.00   10.97482   9.70305    0.000
 5686.00   11.51405   9.55090    0.000
 5687.00   11.51507   9.18664    0.000
 5688.00   11.13365   9.06565    0.000
 5689.00   10.45233   9.29135    0.000
 5690.00    9.58404   9.65200    0.000
 5691.00   10.30728   9.91386    0.000
 5692.00   11.89765  10.13826    0.000
 5693.00   12.25990  10.24123    0.000
 5694.00   12.04069  10.10607    0.000
 5695.00   13.73341   9.95748    0.000
 5696.00   16.20691   9.97960    0.000
 5697.00   16.58209   9.95050    0.000
 5698.00   16.22538   9.64487    0.000
 5699.00   11.84091   9.44147    0.000
 5700.00    6.27202   9.39973    0.000
 5701.00    6.78237   9.16318    0.000
 5702.00    8.77361   8.98802    0.000
 5703.00    9.87049   9.19051    0.000
 5704.00   10.79126   9.54821    0.000
 5705.00   11.52518   9.61441    0.000
 5706.00   12.23039   9.28892    0.000
 5707.00   12.04323   8.94655    0.000
 5708.00   11.75493   8.69243    0.000
 5709.00   11.77463   8.51949    0.000
 5710.00   11.81767   8.67701    0.000
 5711.00   11.16198   8.81409    0.000
 5712.00   10.47787   8.82973    0.000
 5713.00   12.98018   9.25689    0.000
 5714.00   15.44245   9.74951    0.000
 5715.00   15.22770   9.92565    0.000
 5716.00   14.90896  10.04300    0.000
 5717.00   12.80375  10.07671    0.000
 5718.00   10.82292  10.04115    0.000
 5719.00   10.15794  10.14422    0.000
 5720.00    9.52973  10.24840    0.000
 5721.00    9.17706  10.33818    0.000
 5722.00    9.64262  10.51819    0.000
 5723.00   14.77839  10.64752    0.000
 5724.00   18.45665  10.62145    0.000
 5725.00   15.51519  10.54335    0.000
 5726.00   13.03171  10.26798    0.000
 5727.00   12.25249   9.84922    0.000
 5728.00   12.35884   9.86734    0.000
 5729.00   15.22148  10.30024    0.000
 5730.00   17.25832  10.37465    0.000
 5731.00   17.11289   9.94989    0.000
 5732.00   16.23339   9.78298    0.000
 5733.00   13.68812  10.13845    0.000
 5734.00   12.58330  10.46312    0.000
 5735.00   14.30921  10.53055    0.000
 5736.00   15.02763  10.42496    0.000
 5737.00   14.02031  10.26917    0.000
 5738.00   14.55930  10.22596    0.000
 5739.00   17.41805  10.25998    0.000
 5740.00   18.94167  10.29299    0.000
 5741.00   18.70503  10.30929    0.000
 5742.00   17.36605  10.21581    0.000
 5743.00   14.74694  10.11075    0.000
 5744.00   12.51555  10.24946    0.000
 5745.00   10.68123  10.59046    0.000
 5746.00   11.17094  10.73159    0.000
 5747.00   13.75990  10.40522    0.000
 5748.00   16.35225   9.92038    0.000
 5749.00   18.94729   9.96179    0.000
 5750.00   20.01338  10.42926    0.000
 5751.00   20.00874  10.60946    0.000
 5752.00   20.35189  10.26037    0.000
 5753.00   20.90868   9.69435    0.000
 5754.00   18.91712   9.40542    0.000
 5755.00   15.55852   9.73492    0.000
 5756.00   15.84737  10.36374    0.000
 5757.00   17.83527  10.74464    0.000
 5758.00   17.75486  10.80228    0.000
 5759.00   16.84423  10.58584    0.000
 5760.00   12.88536  10.17835    0.000
 5761.00    7.88276   9.74625    0.000
 5762.00    7.05127   9.43827    0.000
 5763.00    7.42176   9.51680    0.000
 5764.00    8.85636  10.11171    0.000
 5765.00   10.54436  10.66821    0.000
 5766.00    9.81285  10.82128    0.000
 5767.00    8.61708  10.83689    0.000
 5768.00    5.48736  10.84189    0.000
 5769.00    2.06961  10.75158    0.000
 5770.00    1.22728  10.65056    0.000
 5771.00    0.66560  10.55156    0.000
 5772.00    2.84503  10.41858    0.000
 5773.00    5.22100  10.39896    0.000
 5774.00    5.40363  10.38676    0.000
 5775.00    5.50542  10.37036    0.000
 5776.00   11.42487  10.52705    0.000
 5777.00   17.25067  10.67433    0.000
 5778.00   18.84926  10.66860    0.000
 5779.00   20.19920  10.50528    0.000
 5780.00   17.55012   9.95003    0.000
 5781.00   14.87053   9.23044    0.000
 5782.00   11.88204   9.02815    0.000
 5783.00    9.42192   9.31255    0.000
 5784.00   10.79091   9.36051    0.000
 5785.00   11.93433   9.06404    0.000
 5786.00   11.82536   9.19102    0.000
 5787.00   11.21754   9.81352    0.000
 5788.00    8.39710  10.26140    0.000
 5789.00    6.21568  10.44568    0.000
 5790.00    6.36275  10.30182    0.000
 5791.00    6.45005  10.01991   -2.000
 5792.00    6.35486  10.16255   -2.000
 5793.00    6.66592  10.51198   -2.000
 5794.00    8.03173  10.75795   -2.000
 5795.00   10.24592  10.96644   -2.000
 5796.00   14.35352  10.88563   -2.000
 5797.00   16.80047  10.42937   -2.000
 5798.00   16.03500  10.11760   -2.000
 5799.00   15.25485  10.49053   -2.000
 5800.00   14.44994  11.06678   -2.000
 5801.00   14.62183  11.31899   -2.000
 5802.00   16.23775  11.36717   -2.000
 5803.00   15.71775  11.18936   -2.000
 5804.00   12.42197  10.72847   -2.000
 5805.00   11.69820  10.45667   -2.000
 5806.00   13.91909  10.49911   -2.000
 5807.00   16.16585  10.62994   -2.000
 5808.00   18.43872  10.71673   -2.000
 5809.00   18.69141  10.76584   -2.000
 5810.00   17.14499  10.87971   -2.000
 5811.00   15.55858  10.99261    0.000
 5812.00   13.94078  10.98682    0.000
 5813.00   14.28886  10.95933    0.000
 5814.00   15.99368  10.84540    0.000
 5815.00   16.43880  10.53334    0.000
 5816.00   16.12170  10.24600    0.000
 5817.00   15.09257  10.35670    0.000
 5818.00   13.68738  10.82709    0.000
 5819.00   12.85220  11.19503    0.000
 5820.00   12.27823  11.30855    0.000
 5821.00   12.54078  11.28111    0.000
 5822.00   13.13333  11.14513    0.000
 5823.00   15.01312  11.01992    0.000
 5824.00   17.32550  11.01407    0.000
 5825.00   16.29550  11.11679    0.000
 5826.00   14.32183  11.16527    0.000
 5827.00   12.47849  11.13769    0.000
 5828.00   10.66548  11.13184    0.000
 5829.00   11.00731  11.23482    0.000
 5830.00   11.75183  11.30519    0.000
 5831.00   12.74981  11.22315    0.000
 5832.00   13.78437  11.17369    0.000
 5833.00   14.05382  11.15681    0.000
 5834.00   14.24320  10.96550    0.000
 5835.00   15.34519  10.81551    0.000
 5836.00   16.50892  10.99719    0.000
 5837.00   14.86569  11.12228    0.000
 5838.00   13.12964  10.92295    0.000
 5839.00   14.17112  10.86995    0.000
 5840.00   15.08204  11.13735    0.000
 5841.00   11.81523  11.39401    0.000
 5842.00    8.59682  11.49766    0.000
 5843.00    6.10978  11.51376    0.000
 5844.00    4.10456  11.42024    0.000
 5845.00    6.77450  11.21701    0.000
 5846.00    9.59028  10.99167    0.000
 5847.00   13.42882  10.76618    0.000
 5848.00   16.79891  10.70952    0.000
 5849.00   17.63745  10.81976    0.000
 5850.00   17.68834  10.93113    0.000
 5851.00   14.32633  10.89312    0.000
 5852.00   11.84832  10.60975    0.000
 5853.00   12.52515  10.26030    0.000
 5854.00   13.08027  10.27922    0.000
 5855.00   13.27075  10.55569    0.000
 5856.00   13.07177  10.47987    0.000
 5857.00   11.87921   9.96330    0.000
 5858.00   11.35314   9.67442    0.000
 5859.00   12.29027   9.96664    0.000
 5860.00   12.69475  10.41811    0.000
 5861.00   12.08492  10.71531    0.000
 5862.00   12.36160  10.65822    0.000
 5863.00   14.11152  10.51824    0.000
 5864.00   15.99440  10.64009    0.000
 5865.00   18.07093  10.77529    0.000
 5866.00   17.48984  10.58091    0.000
 5867.00   13.50421  10.38975    0.000
 5868.00   10.35612  10.62699    0.000
 5869.00    8.15341  10.99843    0.000
 5870.00    8.80697  11.18731    0.000
 5871.00   12.30406  11.15902    0.000
 5872.00   13.96534  10.99087    0.000
 5873.00   14.01477  10.80814    0.000
 5874.00   12.74418  10.87846    0.000
 5875.00   10.45249  11.08432    0.000
 5876.00    9.76474  11.05245    0.000
 5877.00   10.16786  10.85833    0.000
 5878.00    8.49836  10.70177    0.000
 5879.00    5.59355  10.50608    0.000
 5880.00    5.42110  10.22127    0.000
 5881.00    6.66934  10.20907    0.000
 5882.00   10.75162  10.49994    0.000
 5883.00   16.11146  10.55815    0.000
 5884.00   15.86987  10.35647    0.000
 5885.00   13.45686  10.33423    0.000
 5886.00   12.54012  10.41350    0.000
 5887.00   12.11684  10.09503    0.000
 5888.00   13.19074   8.91776    0.000
 5889.00   14.67869   6.89532    0.000
 5890.00   14.49658   5.46350    0.000
 5891.00   13.93469   6.07160    0.000
 5892.00   13.88033   7.65023    0.000
 5893.00   13.91831   8.59297    0.000
 5894.00   15.30585   8.59002    0.000
 5895.00   16.88189   7.47271    0.000
 5896.00   16.70820   6.37982    0.000
 5897.00   16.35894   7.11180    0.000
 5898.00   12.86777   8.71535    0.000
 5899.00    9.17663   9.56246    0.000
 5900.00    8.22202   9.97122    0.000
 5901.00    7.36066  10.37221    0.000
 5902.00   11.00704  10.54994    0.000
 5903.00   14.50375  10.61417    0.000
 5904.00   13.77964  10.67280    0.000
 5905.00   13.04546  10.58177    0.000
 5906.00   12.16788  10.47721    0.000
 5907.00   11.54322  10.58996    0.000
 5908.00   13.27383  10.78509    0.000
 5909.00   14.99581  10.86536    0.000
 5910.00   16.65916  10.87012    0.000
 5911.00   17.86378  10.97308    0.000
 5912.00   16.65441  11.03995    0.000
 5913.00   14.90552  10.80514    0.000
 5914.00   10.87216  10.38610    0.000
 5915.00    7.76002  10.18936    0.000
 5916.00    7.86868  10.23677    0.000
 5917.00    8.71190  10.47891    0.000
 5918.00   11.71519  10.74726    0.000
 5919.00   13.64493  10.88452    0.000
 5920.00   12.88309  11.00936    0.000
 5921.00   12.08607  10.98578    0.000
 5922.00   11.21307  10.80572    0.000
 5923.00   10.69667  10.78547    0.000
 5924.00   10.84884  10.92865    0.000
 5925.00   10.59280  11.05378    0.000
 5926.00    9.66850  11.17331    0.000
 5927.00    9.21653  11.16107    0.000
 5928.00    9.44268  10.98056    0.000
 5929.00   10.01495  10.71568    0.000
 5930.00   11.02433  10.52916    0.000
 5931.00   11.39397  10.76596    0.000
 5932.00   11.05165  11.18185    0.000
 5933.00   10.61852  11.20836    0.000
 5934.00   10.09624  10.82902    0.000
 5935.00    9.89333  10.57604    0.000
 5936.00    9.96688  10.80086    0.000
 5937.00    9.76818  11.07375    0.000
 5938.00    9.36189  11.18473    0.000
 5939.00    9.15381  11.32319    0.000
 5940.00    9.07857  11.22743    0.000
 5941.00   10.57443  10.84239    0.000
 5942.00   12.99264  10.67322    0.000
 5943.00   14.69926  10.84489    0.000
 5944.00   16.04168  11.11181    0.000
 5945.00   14.89745  11.36409    0.000
 5946.00   12.65067  11.51909    0.000
 5947.00   10.37518  11.43792    0.000
 5948.00    8.08875  11.07822    0.000
 5949.00    8.50360  10.75719    0.000
 5950.00    9.79249  10.88689    0.000
 5951.00   11.88800  11.19008    0.000
 5952.00   14.20196  11.04782    0.000
 5953.00   15.60788  10.71362    0.000
 5954.00   16.81211  10.85161    0.000
 5955.00   16.43747  11.14263    0.000
 5956.00   15.78337  11.02194    0.000
 5957.00   15.01452  10.74004    0.000
 5958.00   14.23018  10.73895    0.000
 5959.00   12.60851  10.98673    0.000
 5960.00   10.90639  11.28774    0.000
 5961.00   10.41622  11.52791    0.000
 5962.00    9.99836  11.61014    0.000
 5963.00   13.47528  11.55742    0.000
 5964.00   17.02067  11.49998    0.000
 5965.00   15.74314  11.33154    0.000
 5966.00   14.46068  11.15969    0.000
 5967.00   13.05275  11.31828    0.000
 5968.00   11.85354  11.54983    0.000
 5969.00   13.46443  11.64507    0.000
 5970.00   14.86665  11.73110    0.000
 5971.00   14.40119  11.81720    0.000
 5972.00   13.76893  11.79908    0.000
 5973.00   12.03848  11.75775    0.000
 5974.00   10.59587  11.66989    0.000
 5975.00   10.62898  11.40329    0.000
 5976.00   10.57093  11.04722    0.000
 5977.00   10.13556  10.86493    0.000
 5978.00   10.06927  10.91254    0.000
 5979.00   11.26742  11.11726    0.000
 5980.00   11.92159  11.43355    0.000
 5981.00   11.00552  11.59893    0.000
 5982.00    9.70523  11.46887    0.000
 5983.00    7.45812  11.05098    0.000
 5984.00    6.37578  10.56192    0.000
 5985.00    7.76836  10.58287    0.000
 5986.00    9.64590  11.03139    0.000
 5987.00   12.41865  11.27053    0.000
 5988.00   13.94267  11.34312    0.000
 5989.00   13.45283  11.50550    0.000
 5990.00   12.54790  11.60383    0.000
 5991.00   11.05568  11.43233    0.000
 5992.00   11.20548  11.29232    0.000
 5993.00   13.39936  11.54032    0.000
 5994.00   13.91755  11.83998    0.000
 5995.00   12.59716  11.85663    0.000
 5996.00   11.44992  11.61232    0.000
 5997.00   10.47024  11.24835    0.000
 5998.00   11.42240  11.04690    0.000
 5999.00   14.02321  11.14653    0.000
 6000.00   14.78680  11.39281    0.000
 6001.00   14.16952  11.54779    0.000
 6002.00   13.36593  11.38244    0.000
 6003.00   12.43930  11.14778    0.000
 6004.00    9.77987  11.29696    0.000
 6005.00    6.11852  11.46858    0.000
 6006.00    5.02783  11.29461    0.000
 6007.00    5.23222  10.91488    0.000
 6008.00    5.26832  10.57949    0.000
 6009.00    5.23102  10.81953    0.000
 6010.00    4.89402  11.48358    0.000
 6011.00    4.44488  11.77223    0.000
 6012.00    6.54192  11.48258    0.000
 6013.00    9.44713  11.04996    0.000
 6014.00    9.92013  11.01095    0.000
 6015.00    9.74826  11.24689    0.000
 6016.00    9.93837  11.21860    0.000
 6017.00   10.20697  11.07928    0.000
 6018.00   10.74286  11.17962    0.000
 6019.00   11.32476  11.20915    0.000
 6020.00   10.15154  11.02703    0.000
 6021.00    8.74915  10.97369    0.000
 6022.00    8.26457  11.11564    0.000
 6023.00    7.86429  11.26362    0.000
 6024.00    8.94861  11.34065    0.000
 6025.00   10.11564  11.54101    0.000
 6026.00   12.16764  11.69525    0.000
 6027.00   14.22419  11.64805    0.000
 6028.00   14.80805  11.75859    0.000
 6029.00   15.33399  11.98075    0.000
 6030.00   14.51555  12.00954    0.000
 6031.00   13.61323  11.91959    0.000
 6032.00   11.64045  11.98403    0.000
 6033.00    9.90232  12.13175    0.000
 6034.00   10.18501  12.17253    0.000
 6035.00   10.53119  12.14196    0.000
 6036.00   11.28288  12.14706    0.000
 6037.00   11.70849  12.17597    0.000
 6038.00   10.50482  12.18106    0.000
 6039.00    9.79124  12.09079    0.000
 6040.00   11.06134  11.95276    0.000
 6041.00   12.18943  11.92553    0.000
 6042.00   12.84070  11.95083    0.000
 6043.00   13.26366  12.11111    0.000
 6044.00   13.03963  12.31931    0.000
 6045.00   12.56878  12.39618    0.000
 6046.00   11.50004  12.44920    0.000
 6047.00   10.46722  12.47831    0.000
 6048.00    9.50947  12.39976    0.000
 6049.00    9.39071  12.27332    0.000
 6050.00   10.79687  12.38617    0.000
 6051.00   12.13624  12.49916    0.000
 6052.00   13.36950  12.38448    0.000
 6053.00   14.00126  12.14983    0.000
 6054.00   13.79427  12.03494    0.000
 6055.00   13.07645  11.96672    0.000
 6056.00   11.73172  11.81564    0.000
 6057.00   10.89125  11.74010    0.000
 6058.00   10.59626  11.86404    0.000
 6059.00   10.19528  12.12026    0.000
 6060.00    9.69315  12.31771    0.000
 6061.00    9.24724  12.33486    0.000
 6062.00    8.84863  12.17147    0.000
 6063.00   10.05965  11.91159    0.000
 6064.00   12.46312  11.59712    0.000
 6065.00   12.26678  11.23931    0.000
 6066.00   10.37870  11.37083    0.000
 6067.00    9.36373  12.08848    0.000
 6068.00    8.84596  12.61230    0.000
 6069.00    8.54905  12.70205    0.000
 6070.00    8.36164  12.65906    0.000
 6071.00    8.24485  12.66433    0.000
 6072.00    8.15834  12.73002    0.000
 6073.00   10.02688  12.77160    0.000
 6074.00   12.61398  12.77690    0.000
 6075.00   13.30457  12.72166    0.000
 6076.00   13.40477  12.56954    0.000
 6077.00   12.03596  12.38095    0.000
 6078.00   10.28592  12.07582    0.000
 6079.00   10.06876  11.87116    0.000
 6080.00   10.17604  11.99364    0.000
 6081.00   11.02070  11.93793    0.000
 6082.00   11.98872  11.64801    0.000
 6083.00   10.96478  11.71483    0.000
 6084.00    9.68972  11.98563    0.000
 6085.00    8.97286  11.97358    0.000
 6086.00    8.30493  11.89957    0.000
 6087.00    8.62300  12.03588    0.000
 6088.00    8.99213  12.21843    0.000
 6089.00    9.03256  12.12252    0.000
 6090.00    9.05771  11.74761    0.000
 6091.00    8.40238  11.60748    0.000
 6092.00    7.67541  11.73899    0.000
 6093.00    5.42256  11.80975    0.000
 6094.00    3.42749  11.99880    0.000
 6095.00    4.55733  12.36375    0.000
 6096.00    5.93513  12.41767    0.000
 6097.00    9.37010  12.21403    0.000
 6098.00   12.52858  12.16537    0.000
 6099.00   13.97328  12.37210    0.000
 6100.00   14.76310  12.57279    0.000
 6101.00   12.36211  12.28403    0.000
 6102.00   10.36901  11.28705    0.000
 6103.00    9.99086  10.60499    0.000
 6104.00    9.85013  11.20720    0.000
 6105.00   10.49098  12.09760    0.000
 6106.00   11.31351  12.39552    0.000
 6107.00   12.64158  12.26458    0.000
 6108.00   13.80668  12.12116    0.000
 6109.00   14.58368  12.34959    0.000
 6110.00   14.46697  12.56337    0.000
 6111.00   12.51166  12.32288    0.000
 6112.00   11.11673  12.16332    0.000
 6113.00   10.72475  12.45611    0.000
 6114.00   10.11396  12.80557    0.000
 6115.00    9.16068  12.78604    0.000
 6116.00    8.58304  12.43445    0.000
 6117.00    8.52169  12.27830    0.000
 6118.00    8.55156  12.44464    0.000
 6119.00    8.69179  12.32652    0.000
 6120.00    8.85246  11.87525    0.000
 6121.00    9.03493  11.35462    0.000
 6122.00    8.13971  10.88061    0.000
 6123.00    6.23060  11.18384    0.000
 6124.00    5.21801  12.10355    0.000
 6125.00    4.94904  12.46812    0.000
 6126.00    5.77955  12.27802    0.000
 6127.00    7.41288  12.06910    0.000
 6128.00    9.41056  11.91697    0.000
 6129.00   11.64183  11.96889    0.000
 6130.00   12.29129  12.30571    0.000
 6131.00   12.05365  12.63522    0.000
 6132.00   11.39161  12.75193    0.000
 6133.00   10.52246  12.75713    0.000
 6134.00   10.67950  12.48948    0.000
 6135.00   11.26922  11.81335    0.000
 6136.00    9.39769  10.78653    0.000
 6137.00    6.63775   9.94577    0.000
 6138.00    4.50571  10.33740    0.000
 6139.00    2.56534  11.72437    0.000
 6140.00    3.43979  12.59458    0.000
 6141.00    5.02900  12.35367    0.000
 6142.00    6.89307  11.93588    0.000
 6143.00    8.81389  12.23958    0.000
 6144.00   10.04276  12.81483    0.000
 6145.00   11.15918  12.98191    0.000
 6146.00   10.96680  12.87510    0.000
 6147.00   10.61526  12.70580    0.000
 6148.00   10.18843  12.48652    0.000
 6149.00    9.75531  12.17215    0.000
 6150.00   10.12358  11.95624    0.000
 6151.00   10.53023  12.02984    0.000
 6152.00    9.74387  12.32825    0.000
 6153.00    8.94574  12.53696    0.000
 6154.00    8.47049  12.31834    0.000
 6155.00    8.04997  12.01950    0.000
 6156.00    8.70596  12.07184    0.000
 6157.00    9.39175  12.17189    0.000
 6158.00   10.42140  12.12683    0.000
 6159.00   11.43779  12.03507    0.000
 6160.00   12.34806  11.53493    0.000
 6161.00   13.13794  10.37756    0.000
 6162.00   13.20312   9.44213    0.000
 6163.00   13.40518   9.55149    0.000
 6164.00   14.25777  10.41031    0.000
 6165.00   14.73790  11.17914    0.000
 6166.00   13.77520  11.49533    0.000
 6167.00   12.73197  11.74013    0.000
 6168.00   11.42887  11.68817    0.000
 6169.00   10.59512  10.90313    0.000
 6170.00   11.04396  10.37529    0.000
 6171.00   11.65800  10.96738    0.000
 6172.00   12.65889  11.76653    0.000
 6173.00   13.35334  11.88609    0.000
 6174.00   13.42737  11.83428    0.000
 6175.00   13.18991  11.93611    0.000
 6176.00   12.40344  11.87791    0.000
 6177.00   12.42048  11.75663    0.000
 6178.00   13.67676  11.95707    0.000
 6179.00   14.43457  12.18798    0.000
 6180.00   14.51715  12.09319    0.000
 6181.00   13.80489  12.11707    0.000
 6182.00   12.14464  12.35590    0.000
 6183.00   10.87469  12.39890    0.000
 6184.00   10.01518  12.35461    0.000
 6185.00    9.27992  12.29749    0.000
 6186.00    8.65991  11.96950    0.000
 6187.00    8.45196  11.60553    0.000
 6188.00    8.58096  11.48974    0.000
 6189.00    8.42949  11.54753    0.000
 6190.00    8.07617  11.38070    0.000
 6191.00    8.19323  10.69889    0.000
 6192.00    8.60740  10.47990    0.000
 6193.00    8.15296  11.26252    0.000
 6194.00    7.21882  11.97634    0.000
 6195.00    1.23308  12.17973    0.000
 6196.00   -7.17839  12.30299   -2.000
 6197.00   -7.87397  12.46312   -2.000
 6198.00   -5.37108  12.32556   -2.000
 6199.00    7.57266  11.73600   -2.000
 6200.00   24.21712  11.29621   -2.000
 6201.00   35.88108  11.58483   -2.000
 6202.00   46.05457  12.18739   -2.000
 6203.00   40.07061  12.48961   -2.000
 6204.00   30.07325  12.44883   -2.000
 6205.00   24.89133  12.35179   -2.000
 6206.00   20.67904  12.38228   -2.000
 6207.00   18.71400  12.43072   -2.000
 6208.00   17.10344  12.42298    0.000
 6209.00   14.13495  12.40878    0.000
 6210.00   11.00734  12.28335    0.000
 6211.00    9.17731  12.11044    0.000
 6212.00    7.45025  11.92710    0.000
 6213.00    6.22486  11.42480    0.000
 6214.00    5.02155  10.84521    0.000
 6215.00    5.96274  10.65990    0.000
 6216.00    6.95167  10.82455    0.000
 6217.00    9.09920  11.25977    0.000
 6218.00   11.22118  11.57348    0.000
 6219.00   12.87651  11.36126    0.000
 6220.00   14.36710  11.02819    0.000
 6221.00   14.04407  11.07899    0.000
 6222.00   13.48872  11.44458    0.000
 6223.00   11.13912  11.69212    0.000
 6224.00    9.03008  11.59403    0.000
 6225.00    8.32822  11.57814    0.000
 6226.00    7.89499  11.78874    0.000
 6227.00    8.70778  11.90682    0.000
 6228.00    9.22170  11.87930    0.000
 6229.00    8.60255  11.52055    0.000
 6230.00    8.28716  10.72717    0.000
 6231.00    8.93334  10.27104    0.000
 6232.00    9.25922  10.60799    0.000
 6233.00    8.72539  11.15721    0.000
 6234.00    8.32894  11.78820    0.000
 6235.00    8.24881  12.35361    0.000
 6236.00    8.35961  12.47366    0.000
 6237.00    8.85085  12.24462    0.000
 6238.00    8.86889  11.91448    0.000
 6239.00    8.06550  11.50509    0.000
 6240.00    7.66004  11.12529    0.000
 6241.00    7.85929  11.22425    0.000
 6242.00    8.43977  11.33091    0.000
 6243.00    9.52923  10.91965    0.000
 6244.00   10.12095  10.80736    0.000
 6245.00   10.12744  11.08786    0.000
 6246.00    9.62867  11.20143    0.000
 6247.00    8.60603  11.54494    0.000
 6248.00    7.57755  12.10670    0.000
 6249.00    6.54372  12.26616    0.000
 6250.00    6.68130  12.11509    0.000
 6251.00    7.76314  11.80265    0.000
 6252.00    8.91167  11.23642    0.000
 6253.00   10.10751  10.89471    0.000
 6254.00    9.86926  10.99796    0.000
 6255.00    8.73854  11.16638    0.000
 6256.00    7.08724  11.02357    0.000
 6257.00    5.15288  10.62533    0.000
 6258.00    3.87434  10.28538    0.000
 6259.00    2.90567  10.44495    0.000
 6260.00    3.58831  11.13281    0.000
 6261.00    4.94384  11.61378    0.000
 6262.00    7.62683  11.95564    0.000
 6263.00   10.77175  12.40849    0.000
 6264.00   12.21054  12.38855    0.000
 6265.00   13.14887  11.86019    0.000
 6266.00   12.85763  11.69357    0.000
 6267.00   12.26771  12.03324    0.000
 6268.00   11.00507  12.17159    0.000
 6269.00    9.61038  11.98794    0.000
 6270.00   10.26773  11.91674    0.000
 6271.00   11.23909  12.03422    0.000
 6272.00   12.30993  12.24098    0.000
 6273.00   13.39199  12.39676    0.000
 6274.00   11.99358  12.32957    0.000
 6275.00   10.40847  12.23738    0.000
 6276.00   10.22756  12.30530    0.000
 6277.00   10.10308  12.37069    0.000
 6278.00   11.36119  12.40062    0.000
 6279.00   12.58524  12.29504    0.000
 6280.00   12.01897  11.91986    0.000
 6281.00   11.49228  11.72854    0.000
 6282.00   11.63976  11.92799    0.000
 6283.00   11.83234  12.27792    0.000
 6284.00   12.49930  12.55690    0.000
 6285.00   12.74861  12.51455    0.000
 6286.00    9.88129  12.48274    0.000
 6287.00    7.30985  12.71063    0.000
 6288.00    6.42138  12.96650    0.000
 6289.00    6.13004  13.11557    0.000
 6290.00    8.54263  12.95696    0.000
 6291.00   10.80486  12.60937    0.000
 6292.00   12.50907  12.38576    0.000
 6293.00   13.38467  12.30607    0.000
 6294.00   11.68748  12.48161    0.000
 6295.00    9.95611  12.59770    0.000
 6296.00    8.13457  12.22286    0.000
 6297.00    6.64582  11.78541    0.000
 6298.00    5.91063  11.82046    0.000
 6299.00    5.63502  12.19361    0.000
 6300.00    6.26074  12.34957    0.000
 6301.00    6.79800  12.03220    0.000
 6302.00    7.18405  11.73850    0.000
 6303.00    6.91049  11.94368    0.000
 6304.00    5.64925  12.30567    0.000
 6305.00    5.23840  12.36781    0.000
 6306.00    5.94669  12.39274    0.000
 6307.00    6.99644  12.77808    0.000
 6308.00    8.44203  13.18358    0.000
 6309.00    8.87642  13.19819    0.000
 6310.00    8.27710  12.86526    0.000
 6311.00    8.06201  12.47216    0.000
 6312.00    8.19335  12.33188    0.000
 6313.00    8.49367  12.48196    0.000
 6314.00    8.92827  12.42822    0.000
 6315.00    9.41032  12.07445    0.000
 6316.00    9.92553  12.06585    0.000
 6317.00    9.55971  12.12665    0.000
 6318.00    8.65376  11.72017    0.000
 6319.00    8.29525  11.61676    0.000
 6320.00    8.22985  12.13443    0.000
 6321.00    9.38535  12.53251    0.000
 6322.00   11.10842  12.54432    0.000
 6323.00   11.14802  12.58015    0.000
 6324.00   10.51335  12.85556    0.000
 6325.00    9.03767  13.02682    0.000
 6326.00    7.27471  13.02400    0.000
 6327.00    7.07344  12.92065    0.000
 6328.00    7.32105  12.97809    0.000
 6329.00    8.33650  13.18169    0.000
 6330.00    9.53429  13.04345    0.000
 6331.00    9.97549  12.89699    0.000
 6332.00   10.27199  13.09144    0.000
 6333.00    9.62379  13.31687    0.000
 6334.00    8.83546  13.12325    0.000
 6335.00    9.12164  12.36062    0.000
 6336.00    9.52433  11.79123    0.000
 6337.00   10.91089  12.02596    0.000
 6338.00   12.36750  12.51265    0.000
 6339.00   11.63334  12.67535    0.000
 6340.00   10.81948  12.86503    0.000
 6341.00    9.12842  13.12755    0.000
 6342.00    7.45339  13.01404    0.000
 6343.00    6.45857  12.54306    0.000
 6344.00    5.42453  12.16085    0.000
 6345.00    3.76469  12.34239    0.000
 6346.00    2.21622  12.79431    0.000
 6347.00    1.78921  13.00765    0.000
 6348.00    1.70186  13.12099    0.000
 6349.00    4.06579  13.22761    0.000
 6350.00    6.22434  13.21939    0.000
 6351.00    7.24638  13.23548    0.000
 6352.00    8.22695  13.31647    0.000
 6353.00    9.02408  13.21058    0.000
 6354.00    9.52806  12.78637    0.000
 6355.00    8.96663  12.43097    0.000
 6356.00    8.40781  12.55109    0.000
 6357.00    7.85695  12.68216    0.000
 6358.00    7.63776  12.27050    0.000
 6359.00    8.27782  11.80572    0.000
 6360.00    8.63007  11.76687    0.000
 6361.00    8.34131  11.75250    0.000
 6362.00    8.45878  11.56829    0.000
 6363.00    9.36049  11.60018    0.000
 6364.00    9.89654  11.93660    0.000
 6365.00    9.81682  12.31152    0.000
 6366.00    9.14674  12.59018    0.000
 6367.00    7.60553  12.87723    0.000
 6368.00    6.74359  13.24337    0.000
 6369.00    6.76284  13.38353    0.000
 6370.00    7.27091  13.22393    0.000
 6371.00    8.33764  13.19919    0.000
 6372.00    8.75295  13.49097    0.000
 6373.00    8.51169  13.76389    0.000
 6374.00    8.50330  13.72843    0.000
 6375.00    8.70194  13.56999    0.000
 6376.00    8.98483  13.61634    0.000
 6377.00    9.33372  13.65995    0.000
 6378.00    9.00769  13.40002    0.000
 6379.00    8.21672  13.13302    0.000
 6380.00    8.41757  13.12176    0.000
 6381.00    9.21741  13.17905    0.000
 6382.00    9.52772  13.33496    0.000
 6383.00    9.57998  13.46494    0.000
 6384.00    8.95991  13.33459    0.000
 6385.00    8.03237  13.26585    0.000
 6386.00    6.72878  13.48652    0.000
 6387.00    5.27716  13.68128    0.000
 6388.00    3.98314  13.65656    0.000
 6389.00    2.74196  13.65651    0.000
 6390.00    4.65430  13.77456    0.000
 6391.00    7.45470  13.72495    0.000
 6392.00   10.59936  13.21177    0.000
 6393.00   13.82392  12.44374    0.000
 6394.00   13.84574  12.31525    0.000
 6395.00   13.27105  12.99472    0.000
 6396.00   11.49175  13.64601    0.000
 6397.00    9.53934  13.90925    0.000
 6398.00   10.22193  13.80446    0.000
 6399.00   11.17882  13.06492    0.000
 6400.00   11.04025  12.16793    0.000
 6401.00   10.82812  12.44748    0.000
 6402.00   10.84998  13.49481    0.000
 6403.00   10.87946  14.01138    0.000
 6404.00   12.01480  14.05853    0.000
 6405.00   13.09987  13.98114    0.000
 6406.00   12.61467  13.80003    0.000
 6407.00   12.07342  13.39306    0.000
 6408.00   10.69148  13.02047    0.000
 6409.00    9.45563  13.31355    0.000
 6410.00    9.62992  13.68030    0.000
 6411.00    9.72654  13.35733    0.000
 6412.00    9.28068  13.08816    0.000
 6413.00    8.64579  13.27495    0.000
 6414.00    6.99283  13.41069    0.000
 6415.00    5.83313  13.51739    0.000
 6416.00    6.80451  13.77682    0.000
 6417.00    7.77133  13.87673    0.000
 6418.00    8.72189  13.69740    0.000
 6419.00    9.15741  13.31762    0.000
 6420.00    8.05338  12.80970    0.000
 6421.00    7.19181  12.57835    0.000
 6422.00    6.94742  13.05074    0.000
 6423.00    7.07809  13.85810    0.000
 6424.00    8.03045  14.11435    0.000
 6425.00    9.05270  13.90969    0.000
 6426.00   10.20778  13.94453    0.000
 6427.00   10.38737  14.22893    0.000
 6428.00    8.94884  14.36004    0.000
 6429.00    7.94276  14.03061    0.000
 6430.00    7.56548  13.25704    0.000
 6431.00    7.85052  12.66592    0.000
 6432.00    8.98251  12.94732    0.000
 6433.00    9.05683  13.59979    0.000
 6434.00    7.93940  13.98013    0.000
 6435.00    6.82846  14.10604    0.000
 6436.00    5.72397  14.12562    0.000
 6437.00    5.77991  13.97271    0.000
 6438.00    6.85292  13.37182    0.000
 6439.00    6.96326  12.83361    0.000
 6440.00    6.33027  13.22407    0.000
 6441.00    6.99321  14.06922    0.000
 6442.00    8.53590  14.48179    0.000
 6443.00   10.26008  14.47359    0.000
 6444.00   12.09223  14.39512    0.000
 6445.00   11.25222  14.45698    0.000
 6446.00    9.02558  14.64533    0.000
 6447.00    8.12413  14.67896    0.000
 6448.00    7.81881  14.12183    0.000
 6449.00    7.92376  12.82774    0.000
 6450.00    8.18740  11.87875    0.000
 6451.00    7.22111  12.32828    0.000
 6452.00    5.85017  13.37969    0.000
 6453.00    5.76945  14.08544    0.000
 6454.00    6.04460  14.25455    0.000
 6455.00    6.58907  13.86113    0.000
 6456.00    7.19460  13.55487    0.000
 6457.00    6.87456  13.84236    0.000
 6458.00    6.38671  14.37581    0.000
 6459.00    7.73434  14.70649    0.000
 6460.00    9.33727  14.79697    0.000
 6461.00    9.31315  14.40700    0.000
 6462.00    9.12662  13.42710    0.000
 6463.00    8.24833  12.82842    0.000
 6464.00    7.32637  13.30861    0.000
 6465.00    6.41598  13.99219    0.000
 6466.00    5.51051  14.32225    0.000
 6467.00    5.97617  14.52632    0.000
 6468.00    6.47162  14.60297    0.000
 6469.00    7.79619  14.42441    0.000
 6470.00    9.06317  14.14063    0.000
 6471.00    9.51598  13.90358    0.000
 6472.00    9.84000  13.93179    0.000
 6473.00    8.97071  14.31924    0.000
 6474.00    8.21743  14.41017    0.000
 6475.00    8.24909  14.12455    0.000
 6476.00    8.16297  14.12019    0.000
 6477.00    7.45904  14.39876    0.000
 6478.00    6.61094  14.44716    0.000
 6479.00    5.15417  14.35327    0.000
 6480.00    4.50402  14.31603    0.000
 6481.00    6.66686  13.92420    0.000
 6482.00    8.73122  13.30256    0.000
 6483.00   10.50669  13.15959    0.000
 6484.00   11.46437  13.56990    0.000
 6485.00   10.37615  13.99047    0.000
 6486.00    8.87691  14.17873    0.000
 6487.00    6.49185  14.28432    0.000
 6488.00    4.61147  14.40422    0.000
 6489.00    3.67545  14.29558    0.000
 6490.00    4.30446  13.98235    0.000
 6491.00    7.49070  13.76322    0.000
 6492.00    9.69611  13.65121    0.000
 6493.00   10.49599  13.05800    0.000
 6494.00   10.33193  11.84004    0.000
 6495.00    8.95280  11.09691    0.000
 6496.00    7.39938  11.34491    0.000
 6497.00    5.65233  11.92286    0.000
 6498.00    5.42612  12.39666    0.000
 6499.00    6.69005  12.59260    0.000
 6500.00    8.38329  12.92196    0.000
 6501.00   10.44750  13.44695    0.000
 6502.00    9.51495  13.74971    0.000
 6503.00    6.30145  13.91333    0.000
 6504.00    4.25061  14.07695    0.000
 6505.00    2.97754  14.24649    0.000
 6506.00    2.77433  14.42044    0.000
 6507.00    3.19799  14.37715    0.000
 6508.00    4.28721  14.08046    0.000
 6509.00    5.71639  13.92040    0.000
 6510.00    6.64115  14.12183    0.000
 6511.00    7.34272  14.37822    0.000
 6512.00    7.49388  14.41568    0.000
 6513.00    7.43587  14.42425    0.000
 6514.00    7.93932  14.43282    0.000
 6515.00    8.62400  14.25366    0.000
 6516.00    8.82722  14.05125    0.000
 6517.00    8.90039  13.96273    0.000
 6518.00    8.56529  13.77739    0.000
 6519.00    8.13976  13.70493    0.000
 6520.00    6.63644  14.07469    0.000
 6521.00    4.94300  14.47547    0.000
 6522.00    3.34645  14.58405    0.000
 6523.00    1.76294  14.53194    0.000
 6524.00    2.67052  14.61012    0.000
 6525.00    3.81615  14.73172    0.000
 6526.00    5.68739  14.48381    0.000
 6527.00    7.60156  14.10074    0.000
 6528.00    9.86724  14.10910    0.000
 6529.00   12.12045  14.40645    0.000
 6530.00   11.29042  14.61549    0.000
 6531.00   10.51863  14.53262    0.000
 6532.00   11.21254  14.17203    0.000
 6533.00   11.96505  13.95229    0.000
 6534.00   13.50121  14.17025    0.000
 6535.00   14.73318  14.62982    0.000
 6536.00   13.25586  14.81023    0.000
 6537.00   11.69208  14.62684    0.000
 6538.00    9.56127  14.52197    0.000
 6539.00    7.84492  14.79874    0.000
 6540.00    8.24646  15.06698    0.000
 6541.00    8.59208  14.97075    0.000
 6542.00    8.70689  14.67016    0.000
 6543.00    8.88055  14.44238    0.000
 6544.00    9.25532  14.33552    0.000
 6545.00    9.21012  14.09269    0.000
 6546.00    7.95547  13.63349    0.000
 6547.00    6.85884  13.58047    0.000
 6548.00    6.15078  14.03200    0.000
 6549.00    6.33743  14.43254    0.000
 6550.00    8.42126  14.46013    0.000
 6551.00    9.39910  14.20232    0.000
 6552.00    8.33936  14.03495    0.000
 6553.00    6.54459  13.95537    0.000
 6554.00    3.56665  13.69252    0.000
 6555.00    1.83970  13.37815    0.000
 6556.00    1.87950  13.35996    0.000
 6557.00    2.11344  13.66174    0.000
 6558.00    2.58863  13.92412    0.000
 6559.00    3.97077  13.97515    0.000
 6560.00    6.34626  13.88648    0.000
 6561.00    8.86989  13.17253    0.000
 6562.00   11.53664  11.18747    0.000
 6563.00   13.79708   9.59400    0.000
 6564.00   15.71141  10.65462    0.000
 6565.00   15.96269  12.80170    0.000
 6566.00   14.96629  13.94584    0.000
 6567.00   12.37681  14.38917    0.000
 6568.00    8.73720  14.40512    0.000
 6569.00    6.94617  13.97428    0.000
 6570.00    6.22199  13.74518    0.000
 6571.00    6.14436  13.89952    0.000
 6572.00    6.39181  13.84299    0.000
 6573.00    6.70714  13.49390    0.000
 6574.00    7.05200  13.22729    0.000
 6575.00    6.60001  13.24578    0.000
 6576.00    5.85053  13.73048    0.000
 6577.00    5.40921  14.36300    0.000
 6578.00    5.06546  14.69733    0.000
 6579.00    5.08944  14.65877    0.000
 6580.00    5.21065  14.30151    0.000
 6581.00    5.85461  13.93227    0.000
 6582.00    6.61158  13.99402    0.000
 6583.00    6.75955  14.31550    0.000
 6584.00    6.80306  14.51994    0.000
 6585.00    7.85489  14.51379    0.000
 6586.00    9.03782  14.37257    0.000
 6587.00    8.41737  14.48670    0.000
 6588.00    7.63222  14.80291    0.000
 6589.00    6.74685  14.89949    0.000
 6590.00    5.85594  14.89046    0.000
 6591.00    5.01448  14.64496    0.000
 6592.00    4.18089  13.84814    0.000
 6593.00    3.99646  12.94400    0.000
 6594.00    3.85174  12.95639    0.000
 6595.00    4.61870  13.75115    0.000
 6596.00    5.36010  14.28586    0.000
 6597.00    5.77737  14.31101    0.000
 6598.00    6.25575  14.11678    0.000
 6599.00    7.25784  14.07463    0.000
 6600.00    8.15800  14.41463    0.000
 6601.00    8.40976  14.82207    0.000
 6602.00    8.47444  14.91761    0.000
 6603.00    7.60729  14.78892    0.000
 6604.00    7.31797  14.58080    0.000
 6605.00    9.36098  14.33223    0.000
 6606.00   10.78170  14.17769    0.000
 6607.00   10.11814  14.07244    0.000
 6608.00    9.52243  13.81134    0.000
 6609.00    9.11856  13.49176    0.000
 6610.00    8.96288  13.71755    0.000
 6611.00    9.40713  14.44699    0.000
 6612.00    9.40771  14.85462    0.000
 6613.00    8.48259  14.67159    0.000
 6614.00    7.79564  14.49279    0.000
 6615.00    7.54075  14.76429    0.000
 6616.00    8.23246  14.99244    0.000
 6617.00   10.42533  14.85260    0.000
 6618.00   11.46373  14.72014    0.000
 6619.00   10.89523  14.81312    0.000
 6620.00   10.02463  14.99051    0.000
 6621.00    8.78396  15.08825    0.000
 6622.00    7.95395  14.99927    0.000
 6623.00    7.56738  14.66008    0.000
 6624.00    7.12957  14.11726    0.000
 6625.00    6.64294  13.82276    0.000
 6626.00    6.03385  14.15699    0.000
 6627.00    5.32191  14.53977    0.000
 6628.00    4.76181  14.58481    0.000
 6629.00    4.31399  14.49688    0.000
 6630.00    4.61404  14.38624    0.000
 6631.00    5.39984  14.28756    0.000
 6632.00    5.40582  14.07833    0.000
 6633.00    4.96857  13.69380    0.000
 6634.00    5.33626  13.49792    0.000
 6635.00    6.10228  13.81502    0.000
 6636.00    6.71998  14.31875    0.000
 6637.00    7.27422  14.63198    0.000
 6638.00    6.37235  14.68010    0.000
 6639.00    4.93651  14.46611    0.000
 6640.00    3.70371  14.31872    0.000
 6641.00    2.53397  14.54123    0.000
 6642.00    2.80225  14.63336    0.000
 6643.00    3.44270  14.19880    0.000
 6644.00    4.72895  13.94922    0.000
 6645.00    6.15147  14.28290    0.000
 6646.00    6.23818  14.56371    0.000
 6647.00    6.10224  14.47523    0.000
 6648.00    6.60334  14.38813    0.000
 6649.00    7.18438  14.53837    0.000
 6650.00    6.85694  14.63697    0.000
 6651.00    6.45033  14.50714    0.000
 6652.00    5.57038  14.38334    0.000
 6653.00    4.66615  14.37524    0.000
 6654.00    5.49911  14.42818    0.000
 6655.00    6.36138  14.53759    0.000
 6656.00    7.11685  14.51127    0.000
 6657.00    7.83124  14.42692    0.000
 6658.00    7.67983  14.50894    0.000
 6659.00    7.50206  14.54365    0.000
 6660.00    7.00672  14.39196    0.000
 6661.00    6.53729  14.25534    0.000
 6662.00    6.28188  14.08034    0.000
 6663.00    5.99561  13.69107    0.000
 6664.00    5.51877  13.58632    0.000
 6665.00    5.10843  13.90550    0.000
 6666.00    5.02119  14.06571    0.000
 6667.00    5.12954  14.01307    0.000
 6668.00    6.01016  14.04778    0.000
 6669.00    6.77436  14.32932    0.000
 6670.00    7.15631  14.66654    0.000
 6671.00    7.32403  14.80755    0.000
 6672.00    6.89695  14.76732    0.000
 6673.00    6.19977  14.72245    0.000
 6674.00    4.86070  14.75899    0.000
 6675.00    3.61175  14.82782    0.000
 6676.00    2.54782  14.67820    0.000
 6677.00    1.97042  13.99907    0.000
 6678.00    2.26217  13.25936    0.000
 6679.00    3.58495  13.46493    0.000
 6680.00    6.51868  14.18957    0.000
 6681.00    9.29095  14.40645    0.000
 6682.00   11.84172  14.36444    0.000
 6683.00   12.81723  14.48270    0.000
 6684.00   11.89042  14.65506    0.000
 6685.00   10.94565  14.72260    0.000
 6686.00    9.98178  14.69754    0.000
 6687.00    8.72787  14.61676    0.000
 6688.00    7.20156  14.51590    0.000
 6689.00    6.88726  14.55563    0.000
 6690.00    7.57648  14.68667    0.000
 6691.00    8.24782  14.73732    0.000
 6692.00    8.90613  14.72145    0.000
 6693.00    8.29889  14.70246    0.000
 6694.00    6.88175  14.67414    0.000
 6695.00    6.54901  14.43034    0.000
 6696.00    6.82325  13.99252    0.000
 6697.00    6.27608  13.82736    0.000
 6698.00    5.32889  13.98494    0.000
 6699.00    3.66521  14.29793    0.000
 6700.00    1.70007  14.69334    0.000
 6701.00    2.08491  14.87151    0.000
 6702.00    3.31608  14.75301    0.000
 6703.00    4.42135  14.47586    0.000
 6704.00    5.48829  14.21559    0.000
 6705.00    6.84482  14.25701    0.000
 6706.00    8.27468  14.52876    0.000
 6707.00    8.39615  14.68246    0.000
 6708.00    8.24830  14.70227    0.000
 6709.00    6.76439  14.66901    0.000
 6710.00    5.06418  14.48623    0.000
 6711.00    4.58397  14.40612    0.000
 6712.00    4.25145  14.47254    0.000
 6713.00    4.74689  14.37521    0.000
 6714.00    5.31104  14.14196    0.000
 6715.00    5.77656  13.86478    0.000
 6716.00    6.23741  13.55289    0.000
 6717.00    8.87248  13.29714    0.000
 6718.00   11.49572  13.42589    0.000
 6719.00   11.72910  14.02572    0.000
 6720.00   11.82488  14.45709    0.000
 6721.00    9.23997  14.43784    0.000
 6722.00    6.81959  14.33080    0.000
 6723.00    6.28653  14.50880    0.000
 6724.00    5.62748  14.74647    0.000
 6725.00    3.96484  14.62210    0.000
 6726.00    2.77679  14.32358    0.000
 6727.00    4.43513  14.30571    0.000
 6728.00    5.99700  14.49814    0.000
 6729.00    7.10174  14.63901    0.000
 6730.00    8.04724  14.78462    0.000
 6731.00    8.37760  14.87061    0.000
 6732.00    8.69957  14.79623    0.000
 6733.00    8.99454  14.60384    0.000
 6734.00    9.23504  14.52148    0.000
 6735.00    9.32704  14.64689    0.000
 6736.00    9.58240  14.81641    0.000
 6737.00   10.21947  14.70548    0.000
 6738.00   10.69500  14.35354    0.000
 6739.00   10.84413  14.17474    0.000
 6740.00   10.49533  14.33171    0.000
 6741.00    9.27057  14.55356    0.000
 6742.00    8.03712  14.46456    0.000
 6743.00    6.79026  14.24763    0.000
 6744.00    5.78610  14.34648    0.000
 6745.00    5.11011  14.55595    0.000
 6746.00    5.01565  14.49688    0.000
 6747.00    5.61354  14.33335    0.000
 6748.00    6.39750  14.26773    0.000
 6749.00    7.37678  14.24641    0.000
 6750.00    7.58734  14.19027    0.000
 6751.00    7.08611  14.30995    0.000
 6752.00    7.67408  14.35834    0.000
 6753.00    9.15107  14.18489    0.000
 6754.00    9.73634  14.28569    0.000
 6755.00    9.68104  14.51192    0.000
 6756.00    7.48275  14.68278    0.000
 6757.00    3.93332  14.94746    0.000
 6758.00   -0.19519  15.15520    0.000
 6759.00   -4.64288  15.22163    0.000
 6760.00   -5.29826  15.25145    0.000
 6761.00   -4.13628  15.17156    0.000
 6762.00   -1.33097  14.99772    0.000
 6763.00    2.15410  15.00523    0.000
 6764.00    5.15368  15.11141    0.000
 6765.00    7.98158  15.06310    0.000
 6766.00   10.28773  14.75653    0.000
 6767.00   12.43813  14.40052    0.000
 6768.00   12.26150  14.38706    0.000
 6769.00   11.50845  14.65278    0.000
 6770.00   12.70398  14.68095    0.000
 6771.00   14.29062  14.47920    0.000
 6772.00   12.78219  14.53917    0.000
 6773.00   10.78737  14.90452    0.000
 6774.00    9.03129  15.23984    0.000
 6775.00    7.30306  15.39468    0.000
 6776.00    4.24980  15.43117    0.000
 6777.00    1.09207  15.35725    0.000
 6778.00    1.81670  15.36495    0.000
 6779.00    2.71038  15.52637    0.000
 6780.00    5.30234  15.56929    0.000
 6781.00    7.88666  15.39418    0.000
 6782.00    9.28526  14.99925    0.000
 6783.00   10.53782  14.46753    0.000
 6784.00    9.14712  14.06873    0.000
 6785.00    7.55386  14.03572    0.000
 6786.00    3.74357  14.27578    0.000
 6787.00    0.63571  14.66878    0.000
 6788.00    2.92952  15.03313    0.000
 6789.00    5.14371  15.04716    0.000
 6790.00    6.89380  14.95662    0.000
 6791.00    8.62568  15.07352    0.000
 6792.00   10.27328  15.10038    0.000
 6793.00   11.70971  14.85344    0.000
 6794.00   12.34768  14.68363    0.000
 6795.00   12.06470  14.72967    0.000
 6796.00    8.87362  14.76778    0.000
 6797.00    6.65472  14.90106    0.000
 6798.00    7.03938  15.03768    0.000
 6799.00    8.14615  15.04528    0.000
 6800.00   10.91212  15.09487    0.000
 6801.00   11.85739  15.21881    0.000
 6802.00    9.18192  15.31208    0.000
 6803.00    6.82734  15.20978    0.000
 6804.00    5.02872  15.06533    0.000
 6805.00    3.76688  15.14404    0.000
 6806.00    3.31926  15.17104    0.000
 6807.00    4.20586  15.03776    0.000
 6808.00    6.87060  15.08418    0.000
 6809.00    9.85313  15.12092    0.000
 6810.00   13.20864  15.00693    0.000
 6811.00   15.38619  15.06640    0.000
 6812.00   16.34456  15.22485    0.000
 6813.00   14.77826  15.20978    0.000
 6814.00   10.90715  14.98516    0.000
 6815.00    7.08988  14.78799    0.000
 6816.00    3.31591  15.02293    0.000
 6817.00    1.99128  15.44032    0.000
 6818.00    2.40073  15.54238    0.000
 6819.00    3.02178  15.32235    0.000
 6820.00    3.77427  15.06793    0.000
 6821.00    3.45376  15.10152    0.000
 6822.00    2.55093  15.40082    0.000
 6823.00    2.77785  15.66447    0.000
 6824.00    3.53748  15.73267    0.000
 6825.00    5.36678  15.70464    0.000
 6826.00    7.63102  15.65852    0.000
 6827.00    9.76739  15.45890    0.000
 6828.00   11.85936  15.12040    0.000
 6829.00   10.70856  15.01534    0.000
 6830.00    8.60898  15.27139    0.000
 6831.00    8.17837  15.56518    0.000
 6832.00    8.15202  15.59096    0.000
 6833.00    8.19786  15.46623    0.000
 6834.00    8.25782  15.54276    0.000
 6835.00    7.66371  15.76339    0.000
 6836.00    6.96989  15.75981    0.000
 6837.00    5.32133  15.55297    0.000
 6838.00    3.56561  15.35079    0.000
 6839.00    4.45462  15.05980    0.000
 6840.00    5.54133  14.69156    0.000
 6841.00    5.48860  14.40675    0.000
 6842.00    5.39062  14.35002    0.000
 6843.00    5.97154  14.66799    0.000
 6844.00    6.55277  15.17998    0.000
 6845.00    6.96037  15.53626    0.000
 6846.00    7.22010  15.60337    0.000
 6847.00    4.98197  15.60957    0.000
 6848.00    3.19859  15.68485    0.000
 6849.00    6.17252  15.66307    0.000
 6850.00    8.81807  15.56546    0.000
 6851.00    9.02341  15.53863    0.000
 6852.00    9.30345  15.59092    0.000
 6853.00   10.00692  15.62169    0.000
 6854.00   10.31264  15.32752    0.000
 6855.00    8.82263  14.78717    0.000
 6856.00    7.65269  14.69883    0.000
 6857.00    7.66757  14.97722    0.000
 6858.00    7.66985  15.15015    0.000
 6859.00    7.63309  15.27514    0.000
 6860.00    7.22266  15.14709    0.000
 6861.00    5.82916  14.73288    0.000
 6862.00    4.18165  14.66425    0.000
 6863.00    1.96014  15.21480    0.000
 6864.00    1.32658  15.76430    0.000
 6865.00    3.80131  15.83522    0.000
 6866.00    6.55414  15.59439    0.000
 6867.00    9.78155  15.13110    0.000
 6868.00   11.68904  14.71237    0.000
 6869.00   11.62366  14.91903    0.000
 6870.00    9.66240  15.44455    0.000
 6871.00    5.21057  15.47059    0.000
 6872.00    4.35391  15.12788    0.000
 6873.00    7.65740  15.05234    0.000
 6874.00    9.19813  15.28277    0.000
 6875.00    8.94003  15.38536    0.000
 6876.00    8.00880  15.37495    0.000
 6877.00    6.47170  15.57744    0.000
 6878.00    6.02121  15.86846    0.000
 6879.00    6.43264  15.91480    0.000
 6880.00    7.97209  15.77938    0.000
 6881.00   10.29860  15.51710    0.000
 6882.00   11.22438  15.18445    0.000
 6883.00   11.29304  15.09536    0.000
 6884.00    8.76112  15.42681    0.000
 6885.00    4.83957  15.74364    0.000
 6886.00    3.85659  15.71490    0.000
 6887.00    4.23687  15.78973    0.000
 6888.00    4.26126  16.06687    0.000
 6889.00    4.14341  16.19711    0.000
 6890.00    3.75805  16.27052    0.000
 6891.00    3.28152  16.39411    0.000
 6892.00    3.93003  16.28333    0.000
 6893.00    4.90110  16.11383    0.000
 6894.00    4.71924  16.14195    0.000
 6895.00    4.26437  16.06612    0.000
 6896.00    4.63639  15.92824    0.000
 6897.00    5.16602  16.03862    0.000
 6898.00    4.32885  16.27493    0.000
 6899.00    3.28971  16.24613    0.000
 6900.00    5.00058  16.00558    0.000
 6901.00    7.00813  16.04215    0.000
 6902.00    6.79662  16.36300    0.000
 6903.00    6.42825  16.47381    0.000
 6904.00    6.70255  16.32380    0.000
 6905.00    6.99991  16.21913    0.000
 6906.00    5.70257  16.30642    0.000
 6907.00    4.41559  16.48809    0.000
 6908.00    3.66994  16.54691    0.000
 6909.00    3.03968  16.57540    0.000
 6910.00    4.23573  16.60891    0.000
 6911.00    5.34985  16.50068    0.000
 6912.00    5.64335  16.30284    0.000
 6913.00    5.54803  16.06437    0.000
 6914.00    2.65829  15.82402    0.000
 6915.00    0.34033  15.91142    0.000
 6916.00    1.17539  16.11890    0.000
 6917.00    2.19379  16.09152    0.000
 6918.00    4.02053  16.15376    0.000
 6919.00    5.59045  16.38192    0.000
 6920.00    6.22948  16.58664    0.000
 6921.00    7.11056  16.71016    0.000
 6922.00    8.72728  16.71673    0.000
 6923.00    9.74461  16.50113    0.000
 6924.00    9.21259  15.98861    0.000
 6925.00    9.23220  15.56550    0.000
 6926.00   10.47788  15.55290    0.000
 6927.00    9.88348  15.89191    0.000
 6928.00    5.74357  16.22287    0.000
 6929.00    4.03505  16.36361    0.000
 6930.00    6.41313  16.42451    0.000
 6931.00    8.31285  16.41057    0.000
 6932.00    9.50801  16.22642    0.000
 6933.00    9.81700  15.95030    0.000
 6934.00    8.97852  16.04348    0.000
 6935.00    9.06901  16.42292    0.000
 6936.00   10.21930  16.55385    0.000
 6937.00    8.88704  16.42405    0.000
 6938.00    5.05698  16.35896    0.000
 6939.00    3.25202  16.50883    0.000
 6940.00    3.24413  16.77999    0.000
 6941.00    3.37478  16.94204    0.000
 6942.00    3.61376  16.75043    0.000
 6943.00    4.59928  16.35708    0.000
 6944.00    6.09813  15.95654    0.000
 6945.00    7.91924  15.67381    0.000
 6946.00    9.93459  15.84946    0.000
 6947.00   11.03324  16.37793    0.000
 6948.00   11.64962  16.71842    0.000
 6949.00   10.67244  16.83811    0.000
 6950.00    8.96798  16.75561    0.000
 6951.00    8.29876  16.38671    0.000
 6952.00    8.03615  16.12898    0.000
 6953.00    6.96905  16.07870    0.000
 6954.00    5.63287  16.04049    0.000
 6955.00    5.76952  16.20150    0.000
 6956.00    6.31986  16.55494    0.000
 6957.00    5.84875  16.78151    0.000
 6958.00    5.14125  16.78304    0.000
 6959.00    5.27771  16.75359    0.000
 6960.00    5.57083  16.78778    0.000
 6961.00    5.76279  16.88739    0.000
 6962.00    5.94028  16.96127    0.000
 6963.00    6.63009  17.02314    0.000
 6964.00    7.37296  17.09015    0.000
 6965.00    8.59070  16.94687    0.000
 6966.00    9.84010  16.69492    0.000
 6967.00    9.23057  16.85158    0.000
 6968.00    8.56156  17.28466    0.000
 6969.00    8.93046  17.42969    0.000
 6970.00    9.23871  17.16722    0.000
 6971.00    7.68828  16.82149    0.000
 6972.00    6.29238  16.89192    0.000
 6973.00    7.19625  17.30159    0.000
 6974.00    7.98877  17.32577    0.000
 6975.00    7.71196  16.91033    0.000
 6976.00    7.46257  16.58780    0.000
 6977.00    7.40396  16.18342    0.000
 6978.00    7.10362  15.39804    0.000
 6979.00    5.50565  15.02474    0.000
 6980.00    4.17286  15.67736    0.000
 6981.00    3.98240  16.54431    0.000
 6982.00    4.33588  17.06836    0.000
 6983.00    6.62054  17.38780    0.000
 6984.00    7.95554  17.51633    0.000
 6985.00    6.45846  17.48855    0.000
 6986.00    5.65498  17.44333    0.000
 6987.00    6.61329  17.41543    0.000
 6988.00    7.35171  17.28651    0.000
 6989.00    7.60939  16.95221    0.000
 6990.00    7.24927  16.79705    0.000
 6991.00    5.71728  17.06844    0.000
 6992.00    5.66492  17.42202    0.000
 6993.00    8.06227  17.52664    0.000
 6994.00    9.17116  17.35050    0.000
 6995.00    8.40990  17.18638    0.000
 6996.00    9.90776  17.26995    0.000
 6997.00   14.28924  17.41818    0.000
 6998.00   14.56225  17.35165    0.000
 6999.00   10.21423  16.91282    0.000
 7000.00    8.88797  16.49127    0.000
 7001.00   10.55935  16.65002    0.000
 7002.00   11.26574  17.15170    0.000
 7003.00   11.12785  17.31949    0.000
 7004.00    9.94207  17.01479    0.000
 7005.00    7.94861  16.73946    0.000
 7006.00    7.29234  16.75134    0.000
 7007.00    7.54218  16.89298    0.000
 7008.00    8.17382  17.08912    0.000
 7009.00    9.03217  17.32576    0.000
 7010.00    9.59210  17.39057    0.000
 7011.00    9.99747  17.19558    0.000
 7012.00    8.40091  17.17610    0.000
 7013.00    5.90564  17.40600    0.000
 7014.00    6.16434  17.40211    0.000
 7015.00    7.48594  16.77443    0.000
 7016.00    3.85841  15.86961    0.000
 7017.00   -1.39354  15.80352    0.000
 7018.00    0.27300  16.74482    0.000
 7019.00    3.84287  17.55315    0.000
 7020.00    6.71465  17.82100    0.000
 7021.00    9.42861  17.86331    0.000
 7022.00    8.75926  17.63423    0.000
 7023.00    7.47861  17.03057    0.000
 7024.00    5.77041  16.50249    0.000
 7025.00    4.00299  16.55848    0.000
 7026.00    5.01436  17.01714    0.000
 7027.00    6.30159  17.32086    0.000
 7028.00    6.02446  17.42507    0.000
 7029.00    5.64933  17.56287    0.000
 7030.00    4.34973  17.69014    0.000
 7031.00    3.04480  17.68654    0.000
 7032.00    7.26645  17.56783    0.000
 7033.00   11.25808  17.48448    0.000
 7034.00    8.93243  17.54290    0.000
 7035.00    6.80656  17.71468    0.000
 7036.00    7.48559  17.96992    0.000
 7037.00    7.91936  17.74630    0.000
 7038.00    6.09196  16.87488    0.000
 7039.00    4.67550  16.60639    0.000
 7040.00    6.02849  17.50639    0.000
 7041.00    7.03146  18.50329    0.000
 7042.00    6.20454  18.91963    0.000
 7043.00    5.57894  18.85604    0.000
 7044.00    5.80086  18.41865    0.000
 7045.00    6.32624  17.87423    0.000
 7046.00    7.90715  17.88129    0.000
 7047.00    8.47109  18.35158    0.000
 7048.00    6.05847  18.80433    0.000
 7049.00    5.32762  18.99015    0.000
 7050.00    8.79506  18.89057   -2.000
 7051.00    9.87370  18.55884   -2.000
 7052.00    5.81438  17.77180   -2.000
 7053.00    4.26415  16.79162   -2.000
 7054.00    7.39964  16.24446   -2.000
 7055.00    8.44834  16.19202   -2.000
 7056.00    6.09364  16.52378   -2.000
 7057.00    5.60805  16.93620   -2.000
 7058.00    7.79601  16.99469   -2.000
 7059.00    7.63699  16.51467   -2.000
 7060.00    4.52483  15.91789   -2.000
 7061.00    1.92240  15.83824   -2.000
 7062.00   -0.11479  16.14181   -2.000
 7063.00    1.90158  16.36884   -2.000
 7064.00    7.88271  16.64613   -2.000
 7065.00   10.73435  16.79092   -2.000
 7066.00   10.88664  16.48532   -2.000
 7067.00   11.02555  15.92070   -2.000
 7068.00   11.15431  15.43491   -2.000
 7069.00    8.27865  15.49498   -2.000
 7070.00    3.39688  16.24704   -2.000
 7071.00    3.38404  16.97280   -2.000
 7072.00    6.21876  17.13808   -2.000
 7073.00    6.67757  17.05499   -2.000
 7074.00    5.92513  17.02211   -2.000
 7075.00    5.70322  16.97122   -2.000
 7076.00    5.71556  16.91132   -2.000
 7077.00    6.26213  16.96668   -2.000
 7078.00    7.01127  17.12131   -2.000
 7079.00    7.43027  17.22744   -2.000
 7080.00    7.74295  17.42020   -2.000
 7081.00    9.51016  17.61475   -2.000
 7082.00   11.66920  17.37963   -2.000
 7083.00    8.35985  16.68001   -2.000
 7084.00    3.84313  15.82073   -2.000
 7085.00    7.34998  15.42919   -2.000
 7086.00   12.26719  15.78068   -2.000
 7087.00   12.11670  16.00949   -2.000
 7088.00   11.28733  15.78051   -2.000
 7089.00   12.88357  15.54041   -2.000
 7090.00   14.71030  15.36905   -2.000
 7091.00   11.11302  15.40239   -2.000
 7092.00    7.19752  15.58249   -2.000
 7093.00    6.18414  15.55789   -2.000
 7094.00    5.25933  15.58223   -2.000
 7095.00    6.64968  15.66103   -2.000
 7096.00    7.83719  15.70542   -2.000
 7097.00    3.98119  15.81350   -2.000
 7098.00    0.63014  15.97429   -2.000
 7099.00    3.98512  16.20065   -2.000
 7100.00    6.71837  16.33808   -2.000
 7101.00    3.94092  16.22987   -2.000
 7102.00    1.76132  15.93048   -2.000
 7103.00    3.48753  15.77661   -2.000
 7104.00    5.38448  16.03061   -2.000
 7105.00    8.15111  16.41606   -2.000
 7106.00    9.90351  16.35509   -2.000
 7107.00    7.48133  15.97681   -2.000
 7108.00    8.89656  15.88646   -2.000
 7109.00   23.39216  16.06788   -2.000
 7110.00   33.83748  15.96644   -2.000
 7111.00   32.64571  15.60565   -2.000
 7112.00   25.54134  15.54241   -2.000
 7113.00    3.92948  15.88310   -2.000
 7114.00   -7.33608  16.20591   -2.000
 7115.00    3.29281  16.30398   -2.000
 7116.00    9.80450  16.37087   -2.000
 7117.00    8.74571  16.37920   -2.000
 7118.00    8.12795  16.27393   -2.000
 7119.00    8.21882  16.19974   -2.000
 7120.00    7.25458  16.16949   -2.000
 7121.00    4.80297  16.11897   -2.000
 7122.00    3.69310  15.94378   -2.000
 7123.00    4.24751  15.97770   -2.000
 7124.00    6.62864  16.22081   -2.000
 7125.00   11.00698  16.03799   -2.000
 7126.00   13.08021  15.54630   -2.000
 7127.00   12.93047  15.35574   -2.000
 7128.00   15.74225  15.57877   -2.000
 7129.00   21.07243  15.60699   -2.000
 7130.00   22.35501  15.13283   -2.000
 7131.00   20.60640  14.78709   -2.000
 7132.00   16.34746  15.03985   -2.000
 7133.00   10.43684  15.52312   -2.000
 7134.00    7.25818  15.93681   -2.000
 7135.00    5.65316  16.09634   -2.000
 7136.00    6.45562  16.08989   -2.000
 7137.00    8.46611  16.30671   -2.000
 7138.00    8.17820  16.30752   -2.000
 7139.00    6.89223  15.82820   -2.000
 7140.00    8.23966  15.66082   -2.000
 7141.00   10.56806  16.12177   -2.000
 7142.00    9.79844  16.39458   -2.000
 7143.00    8.05027  16.26427   -2.000
 7144.00    5.55633  16.18004   -2.000
 7145.00    2.86573  16.17903   -2.000
 7146.00    7.07259  16.19830   -2.000
 7147.00   12.76618  15.95251   -2.000
 7148.00   11.89794  15.38796   -2.000
 7149.00    9.90822  15.28286   -2.000
 7150.00    8.05957  15.64141   -2.000
 7151.00    6.22919  15.94467   -2.000
 7152.00    5.87531  16.33554   -2.000
 7153.00    5.65550  16.78975   -2.000
 7154.00    7.78385  16.82063   -2.000
 7155.00   10.04069  16.38117   -2.000
 7156.00   10.48559  16.27048   -2.000
 7157.00   10.82259  16.79041   -2.000
 7158.00    4.77568  16.95146   -2.000
 7159.00   -0.35876  16.53754   -2.000
 7160.00   15.21798  16.18646   -2.000
 7161.00   29.55673  16.25430   -2.000
 7162.00   28.30325  16.62611   -2.000
 7163.00   26.73754  16.61011   -2.000
 7164.00   22.50812  15.91363   -2.000
 7165.00   17.01897  15.29461   -2.000
 7166.00    3.54578  15.54713   -2.000
 7167.00   -5.96974  16.39389   -2.000
 7168.00    4.16524  17.04340   -2.000
 7169.00   12.06672  17.07822   -2.000
 7170.00   10.97801  16.78588   -2.000
 7171.00   10.79574  16.81501   -2.000
 7172.00   13.64195  17.19041   -2.000
 7173.00   14.51845  17.42762   -2.000
 7174.00    9.83865  17.31461   -2.000
 7175.00    6.28704  16.95051   -2.000
 7176.00    5.45663  16.53919   -2.000
 7177.00    5.92368  16.61514   -2.000
 7178.00    9.09235  17.17887   -2.000
 7179.00   11.61034  17.21163   -2.000
 7180.00   12.95026  16.45430   -2.000
 7181.00   13.55456  15.76227   -2.000
 7182.00   12.99445  15.99231   -2.000
 7183.00   12.14731  16.94226   -2.000
 7184.00   10.90138  17.50768   -2.000
 7185.00    9.42083  17.41695   -2.000
 7186.00    7.65342  17.00959   -2.000
 7187.00    8.05193  16.29325   -2.000
 7188.00   10.78519  15.76087   -2.000
 7189.00   10.03066  15.82751   -2.000
 7190.00    5.95985  16.25619   -2.000
 7191.00    3.46256  16.72084   -2.000
 7192.00    2.28444  16.74818   -2.000
 7193.00    3.62030  16.46996   -2.000
 7194.00    6.81185  16.52944   -2.000
 7195.00    7.73799  16.96276   -2.000
 7196.00    7.19548  17.11309   -2.000
 7197.00    6.04747  16.77980   -2.000
 7198.00    4.55596  16.65979   -2.000
 7199.00   10.38225  16.89525   -2.000
 7200.00   19.82250  17.04013   -2.000
 7201.00   22.58914  16.93145   -2.000
 7202.00   22.50608  16.79238   -2.000
 7203.00   17.79868  17.02842   -2.000
 7204.00   11.39931  17.50150   -2.000
 7205.00    6.53045  17.67167   -2.000
 7206.00    2.13571  17.09028   -2.000
 7207.00    6.14591  16.03044   -2.000
 7208.00   12.32544  15.62658   -2.000
 7209.00    9.27320  16.04891   -2.000
 7210.00    4.27908  16.79849   -2.000
 7211.00    5.57580  17.56159   -2.000
 7212.00    7.91734  17.69411   -2.000
 7213.00    9.47071  17.22746   -2.000
 7214.00   10.92559  16.83078   -2.000
 7215.00   12.93413  16.76888   -2.000
 7216.00   14.99063  16.94323   -2.000
 7217.00   13.56877  17.37112   -2.000
 7218.00   11.97018  17.83364   -2.000
