###################################################################
## OUTPUT of StarlightChains_v04.for    [Cid@UFSC - 01/Apr/2007] ##
###################################################################

## Some input info
KUG0210-078._30_32.txt                   [arq_obs]
Base.CB07.vall.4m                        [arq_base]
Masks.EmLines.NEW.gm                     [arq_masks]
StCv04.C11.config                        [arq_config]
   66                                    [N_base]
    0                                    [N_YAV_components = # of components with extra extinction!]
    0                                    [i_FitPowerLaw (1/0 = Yes/No)]
-9.99                                    [alpha_PowerLaw]
CCM                                      [red_law_option]
 1.458241                                [q_norm = A(l_norm)/A(V)]

## (Re)Sampling Parameters
 3741.00                                 [l_ini (A)]
 7218.00                                 [l_fin (A)]
    1.00                                 [dl    (A)]     (OBS: dl_cushion =    50.00 A)

## Normalization info
 4020.00                                 [l_norm (A) - for base]
 4010.00                                 [llow_norm (A) - window for f_obs]
 4060.00                                 [lupp_norm (A) - window for f_obs]
8.226809E-17                             [fobs_norm (in input units)]

## S/N
 3691.00                                 [llow_SN (A) - window for S/N]
 7268.00                                 [lupp_SN (A) - window for S/N]
   4.972                                 [S/N in S/N window]
   3.676                                 [S/N in norm. window]
   0.191                                 [S/N_err in S/N window]
   0.141                                 [S/N_err in norm. window]
  1.0000                                 [fscale_chi2]

## etc...
    -2007433                             [idum_orig]
  2432                                   [NOl_eff]
  2051                                   [Nl_eff]
   381    NSIGMA                         [Ntot_cliped & clip_method]
 15965180                                [Nglobal_steps]
   7                                     [N_chains]
  40                                     [NEX0s_base = N_base in EX0s-fits]
 0   0   1      381   2.0   7.157E+04    [Clip-Bug, RC-Crash & Burn-In warning-flags, n_censored_weights, wei_nsig_threshold & wei_limit]
   117    116.170    115.345      0.825  [idt_all, wdt_TotTime, wdt_UsrTime & wdt_SysTime (sec)]

## Synthesis Results - Best model ##

 3.63931E-05                             [chi2/Nl_eff]
     2.14235                             [adev (%)]

   129.07903                             [sum-of-x (%)]
 2.30306E-16                             [Flux_tot (units of input spectrum!)]
 9.30116E-12                             [Mini_tot (???)]
 4.70784E-12                             [Mcor_tot (???)]

  -7.83                                  [v0_min  (km/s)]
 233.11                                  [vd_min  (km/s)]
 0.5764                                  [AV_min  (mag)]
 0.0000                                  [YAV_min (mag)]

# j     x_j(%)      Mini_j(%)     Mcor_j(%)     age_j(yr)     Z_j      (L/M)_j    YAV?  Mstars   component_j        a/Fe...       SSP_chi2r SSP_adev(%)   SSP_AV   SSP_x(%)
  1      6.5697     1.1520E-02    2.2759E-02    1.000000E+06  0.00400  1.094E-02    0   1.0000   age020_m42            0.0000     2.2016E-04     6.1226   3.4678   110.6719
  2      2.9097     1.3930E-03    2.7518E-03    3.160000E+06  0.00400  4.007E-02    0   0.9999   age045_m42            0.0000     1.8459E-04     5.3531   2.7959   115.5150
  3      0.0000     0.0000E+00    0.0000E+00    5.010000E+06  0.00400  2.539E-02    0   0.9488   age055_m42            0.0000     1.9084E-04     5.5831   3.0894   114.0326
  4      0.0000     0.0000E+00    0.0000E+00    6.610000E+06  0.00400  2.620E-02    0   0.9220   age061_m42            0.0000     1.6886E-04     5.0870   2.7169   116.0940
  5      0.0000     0.0000E+00    0.0000E+00    1.000000E+07  0.00400  1.322E-02    0   0.8862   age070_m42            0.0000     1.2047E-04     3.9525   2.3835   121.6708
  6      0.0000     0.0000E+00    0.0000E+00    1.445000E+07  0.00400  7.883E-03    0   0.8571   age078_m42            0.0000     1.3568E-04     4.2942   2.7050   118.7991
  7      4.7863     1.7485E-02    2.8237E-02    2.512000E+07  0.00400  5.251E-03    0   0.8174   age090_m42            0.0000     1.1447E-04     3.7513   2.2505   122.6158
  8      0.1866     9.8086E-04    1.5214E-03    4.000000E+07  0.00400  3.649E-03    0   0.7851   age104_m42            0.0000     1.0998E-04     3.6827   2.0363   122.8894
  9      0.0000     0.0000E+00    0.0000E+00    5.500000E+07  0.00400  3.098E-03    0   0.7629   age110_m42            0.0000     1.2567E-04     4.0340   2.2203   121.0433
 10      0.0000     0.0000E+00    0.0000E+00    1.015200E+08  0.00400  2.228E-03    0   0.7207   age116_m42            0.0000     1.3263E-04     4.2186   2.2601   120.1328
 11      0.0000     0.0000E+00    0.0000E+00    2.861200E+08  0.00400  1.093E-03    0   0.6648   age125_m42            0.0000     1.1077E-04     3.6821   1.6740   124.5904
 12      0.0000     0.0000E+00    0.0000E+00    5.088000E+08  0.00400  6.597E-04    0   0.6365   age130_m42            0.0000     1.1286E-04     3.7673   1.6978   123.6594
 13      0.0000     0.0000E+00    0.0000E+00    1.434000E+09  0.00400  2.132E-04    0   0.5798   age139_m42            0.0000     6.7644E-05     2.9538   0.7596   124.4081
 14      1.4662     4.7711E-01    5.0685E-01    4.250000E+09  0.00400  5.895E-05    0   0.5377   age158_m42            0.0000     7.8723E-05     3.6171   0.3421   118.2502
 15      0.0000     0.0000E+00    0.0000E+00    7.500000E+09  0.00400  3.510E-05    0   0.5212   age171_m42            0.0000     8.3590E-05     3.8036   0.1679   116.6560
 16      0.4098     3.9203E-01    3.8989E-01    1.300000E+10  0.00400  2.005E-05    0   0.5034   age193_m42            0.0000     9.2711E-05     4.0706   0.0113   115.4963
 17      0.0000     0.0000E+00    0.0000E+00    1.800000E+10  0.00400  1.525E-05    0   0.4967   age213_m42            0.0000     9.1214E-05     4.0018  -0.0156   115.2038
 18      0.9540     1.4782E-03    2.9204E-03    1.000000E+06  0.00800  1.238E-02    0   1.0000   age020_m52            0.0000     2.1961E-04     6.1228   3.4642   110.8832
 19      2.2700     1.4165E-03    2.7891E-03    3.160000E+06  0.00800  3.074E-02    0   0.9966   age045_m52            0.0000     2.1637E-04     6.0918   3.3947   111.5346
 20      4.2729     3.0722E-03    5.7316E-03    5.010000E+06  0.00800  2.668E-02    0   0.9443   age055_m52            0.0000     1.8893E-04     5.5827   3.1639   113.4286
 21      0.0000     0.0000E+00    0.0000E+00    6.610000E+06  0.00800  2.136E-02    0   0.9177   age061_m52            0.0000     9.7794E-05     3.7814   1.8869   122.9400
 22      0.0000     0.0000E+00    0.0000E+00    1.000000E+07  0.00800  1.215E-02    0   0.8827   age070_m52            0.0000     1.1566E-04     3.7267   2.5419   122.5503
 23      0.0000     0.0000E+00    0.0000E+00    1.445000E+07  0.00800  8.717E-03    0   0.8552   age078_m52            0.0000     1.2718E-04     4.0719   2.6734   120.3117
 24      3.8450     1.3190E-02    2.1269E-02    2.512000E+07  0.00800  5.592E-03    0   0.8162   age090_m52            0.0000     1.0795E-04     3.5167   2.3149   123.9909
 25      1.2370     6.0909E-03    9.4355E-03    4.000000E+07  0.00800  3.896E-03    0   0.7841   age104_m52            0.0000     1.0944E-04     3.5622   2.2483   123.6770
 26      0.0000     0.0000E+00    0.0000E+00    1.015200E+08  0.00800  2.148E-03    0   0.7226   age116_m52            0.0000     1.1767E-04     3.8610   2.2167   121.7177
 27      0.0000     0.0000E+00    0.0000E+00    2.861200E+08  0.00800  9.925E-04    0   0.6683   age125_m52            0.0000     1.0454E-04     3.6451   1.7635   124.7573
 28      0.2044     1.2481E-02    1.5135E-02    9.047900E+08  0.00800  3.141E-04    0   0.6138   age135_m52            0.0000     8.1111E-05     3.1926   1.0318   125.9570
 29      0.0000     0.0000E+00    0.0000E+00    1.434000E+09  0.00800  1.719E-04    0   0.5853   age139_m52            0.0000     6.1085E-05     2.9852   0.4389   124.0513
 30      0.1681     4.0975E-02    4.5333E-02    2.500000E+09  0.00800  7.872E-05    0   0.5600   age150_m52            0.0000     7.5579E-05     3.5750   0.2107   118.6104
 31      0.0000     0.0000E+00    0.0000E+00    4.250000E+09  0.00800  4.336E-05    0   0.5426   age158_m52            0.0000     7.9221E-05     3.6971   0.1969   117.4265
 32      0.0000     0.0000E+00    0.0000E+00    6.250000E+09  0.00800  3.159E-05    0   0.5319   age166_m52            0.0000     9.1469E-05     4.0872   0.0167   116.2231
 33      2.3295     3.2834E+00    3.2908E+00    1.300000E+10  0.00800  1.361E-05    0   0.5073   age193_m52            0.0000     1.1365E-04     4.6463  -0.4207   113.8618
 34      3.7800     7.3347E+00    7.2310E+00    1.800000E+10  0.00800  9.886E-06    0   0.4990   age213_m52            0.0000     1.3703E-04     5.0720  -0.5032   111.9683
 35      9.8930     1.2291E-02    2.4283E-02    1.000000E+06  0.02000  1.544E-02    0   1.0000   age020_m62            0.0000     2.2080E-04     6.1457   3.4582   111.2362
 36      0.0000     0.0000E+00    0.0000E+00    3.160000E+06  0.02000  3.762E-02    0   0.9858   age045_m62            0.0000     2.1955E-04     6.1450   3.4007   112.0363
 37      0.0000     0.0000E+00    0.0000E+00    5.010000E+06  0.02000  3.296E-02    0   0.9342   age055_m62            0.0000     1.8745E-04     5.5369   3.0623   114.7491
 38     11.0519     1.8371E-02    3.2162E-02    8.710000E+06  0.02000  1.154E-02    0   0.8861   age067_m62            0.0000     9.7786E-05     3.1560   1.8736   133.7096
 39      0.0000     0.0000E+00    0.0000E+00    1.445000E+07  0.02000  7.663E-03    0   0.8472   age078_m62            0.0000     9.9309E-05     3.3563   2.1559   127.2791
 40      0.0000     0.0000E+00    0.0000E+00    2.512000E+07  0.02000  4.532E-03    0   0.8099   age090_m62            0.0000     9.9865E-05     3.3646   2.1427   127.2410
 41      0.0000     0.0000E+00    0.0000E+00    5.500000E+07  0.02000  2.733E-03    0   0.7595   age110_m62            0.0000     1.0077E-04     3.4623   2.2226   123.2675
 42      3.9143     5.4848E-02    7.5691E-02    1.609000E+08  0.02000  1.369E-03    0   0.6985   age120_m62            0.0000     1.0822E-04     3.6809   2.1080   123.8673
 43      0.0000     0.0000E+00    0.0000E+00    2.861200E+08  0.02000  9.013E-04    0   0.6714   age125_m62            0.0000     1.0492E-04     3.5858   1.8892   125.6092
 44      5.5465     2.1161E-01    2.6962E-01    5.088000E+08  0.02000  5.028E-04    0   0.6449   age130_m62            0.0000     1.0907E-04     3.7409   1.5713   125.3581
 45      0.0000     0.0000E+00    0.0000E+00    9.047900E+08  0.02000  2.428E-04    0   0.6179   age135_m62            0.0000     7.7261E-05     3.4166   1.0072   123.2999
 46      6.0283     9.1560E-01    1.0687E+00    1.434000E+09  0.02000  1.263E-04    0   0.5908   age139_m62            0.0000     6.7113E-05     3.4012   0.5705   121.0825
 47      0.0000     0.0000E+00    0.0000E+00    2.500000E+09  0.02000  5.985E-05    0   0.5673   age150_m62            0.0000     8.6918E-05     4.0981   0.2304   117.9984
 48      0.8033     4.7110E-01    5.0893E-01    4.250000E+09  0.02000  3.271E-05    0   0.5468   age158_m62            0.0000     1.1601E-04     4.7952  -0.0427   115.2918
 49      9.8038     1.3828E+01    1.4116E+01    1.000000E+10  0.02000  1.360E-05    0   0.5167   age181_m62            0.0000     1.5036E-04     5.2953  -0.3453   112.4399
 50      6.8675     1.8492E+01    1.8315E+01    1.800000E+10  0.02000  7.124E-06    0   0.5013   age213_m62            0.0000     1.8587E-04     5.7449  -0.5205   109.7590
 51      1.7911     1.3256E-03    2.6184E-03    1.000000E+06  0.05000  2.592E-02    0   0.9998   age020_m72            0.0000     2.2197E-04     6.1635   3.4450   111.5291
 52      0.0000     0.0000E+00    0.0000E+00    3.160000E+06  0.05000  4.845E-02    0   0.9577   age045_m72            0.0000     2.1166E-04     6.0011   3.3030   112.5457
 53      0.0000     0.0000E+00    0.0000E+00    5.010000E+06  0.05000  3.072E-02    0   0.9147   age055_m72            0.0000     1.3690E-04     4.4068   2.7553   121.1972
 54     18.2519     2.4063E-02    4.2203E-02    6.610000E+06  0.05000  1.455E-02    0   0.8877   age061_m72            0.0000     2.4784E-04     6.1983   1.8403   139.0749
 55      0.0000     0.0000E+00    0.0000E+00    1.000000E+07  0.05000  9.074E-03    0   0.8524   age070_m72            0.0000     1.9959E-04     5.8159   2.9128   121.5555
 56      0.0000     0.0000E+00    0.0000E+00    2.512000E+07  0.05000  4.250E-03    0   0.7902   age090_m72            0.0000     1.4872E-04     4.6775   2.6475   122.4421
 57      0.0000     0.0000E+00    0.0000E+00    4.000000E+07  0.05000  3.087E-03    0   0.7618   age104_m72            0.0000     1.4168E-04     4.4746   2.4205   124.5388
 58      0.0000     0.0000E+00    0.0000E+00    1.015200E+08  0.05000  1.700E-03    0   0.7096   age116_m72            0.0000     1.1296E-04     3.6558   2.2291   124.5258
 59      0.0000     0.0000E+00    0.0000E+00    2.861200E+08  0.05000  7.384E-04    0   0.6633   age125_m72            0.0000     9.8733E-05     3.4850   1.7923   125.2427
 60      0.0609     3.0597E-03    3.8518E-03    5.088000E+08  0.05000  3.819E-04    0   0.6372   age130_m72            0.0000     8.5037E-05     3.6203   1.3516   124.3099
 61      0.0000     0.0000E+00    0.0000E+00    9.047900E+08  0.05000  1.676E-04    0   0.6110   age135_m72            0.0000     8.9408E-05     4.2548   0.7020   119.5631
 62      0.2558     5.5537E-02    6.4451E-02    1.434000E+09  0.05000  8.837E-05    0   0.5874   age139_m72            0.0000     8.2543E-05     4.0147   0.2423   119.0015
 63      0.3984     1.8054E-01    1.9968E-01    2.500000E+09  0.05000  4.233E-05    0   0.5598   age150_m72            0.0000     1.2239E-04     4.9267  -0.0267   115.3821
 64      7.0484     9.4222E+00    9.7711E+00    6.250000E+09  0.05000  1.435E-05    0   0.5249   age166_m72            0.0000     1.6379E-04     5.4855  -0.4293   111.2882
 65      4.6668     1.3745E+01    1.3676E+01    1.300000E+10  0.05000  6.513E-06    0   0.5036   age193_m72            0.0000     2.1582E-04     6.0667  -0.6692   110.2473
 66      7.3078     3.0966E+01    3.0253E+01    1.800000E+10  0.05000  4.527E-06    0   0.4945   age213_m72            0.0000     2.5111E-04     6.4230  -0.8046   108.6868


## Synthesis Results - Average & Chains ##

# j      x_j: min, <> & last-chain-values for 1 ...  7 chains
  1      6.5697      1.9054      2.5088      1.9710      1.9456      1.5580      0.5886      1.7202      1.9270
  2      2.9097      2.6853      3.1576      3.0091      3.6849      3.3674      1.8637      3.1296      3.0179
  3      0.0000      0.2842      0.7847      0.0232      0.0338      0.1505      0.1000      0.0047      0.0018
  4      0.0000      0.2977      0.0000      0.0163      0.0051      0.0000      0.0931      0.0661      0.0000
  5      0.0000      0.2799      0.1665      0.0000      0.0209      0.2280      0.0096      0.0255      0.0290
  6      0.0000      0.2539      0.0000      0.0549      0.0551      0.0984      0.0169      0.0366      0.0284
  7      4.7863      0.3634      0.4267      0.0508      0.0463      0.8835      0.0630      0.0000      0.1317
  8      0.1866      0.3807      0.2902      0.0360      0.1122      0.4361      0.0063      0.0113      0.1018
  9      0.0000      0.2606      0.2265      0.1363      0.0902      0.0000      0.0106      0.0638      0.0253
 10      0.0000      0.2501      0.0000      0.1079      0.0913      0.1586      0.1190      0.0114      0.0351
 11      0.0000      0.2770      0.0591      0.0795      0.0399      0.0435      0.0080      0.1835      0.0000
 12      0.0000      0.2939      0.6184      0.0261      0.0238      0.0000      0.0000      0.0006      0.0035
 13      0.0000      0.8098      0.4414      0.8739      0.8007      0.9663      0.7693      0.7725      0.7513
 14      1.4662      0.3018      0.4953      0.0001      0.0439      0.3735      0.0684      0.0640      0.1380
 15      0.0000      0.9617      2.0201      0.4977      0.4806      1.5819      0.4678      0.5210      0.6771
 16      0.4098      0.3112      0.1872      0.0680      0.0000      0.4404      0.0443      0.0053      0.0000
 17      0.0000      0.2896      0.2772      0.0399      0.0573      0.1954      0.0020      0.0438      0.0354
 18      0.9540      1.4437      0.9056      1.4896      1.4459      0.7612      0.6723      3.0491      1.5213
 19      2.2700      1.2437      0.8865      1.2791      1.0054      1.2041      0.9413      2.4777      1.2928
 20      4.2729      0.3173      0.5149      0.0603      0.0514      0.6621      0.0256      0.0306      0.0611
 21      0.0000      0.3095      0.5883      0.1303      0.0432      0.1252      0.0918      0.0249      0.0415
 22      0.0000      0.2751      0.2393      0.0414      0.0000      0.0000      0.0114      0.0185      0.1681
 23      0.0000      0.3405      0.1752      0.0151      0.0045      0.0845      0.0043      0.0000      0.0551
 24      3.8450      0.2847      0.0567      0.0193      0.0087      0.2828      0.0350      0.0000      0.0365
 25      1.2370      0.2970      0.5056      0.0247      0.1051      0.7226      0.0154      0.0250      0.0000
 26      0.0000      0.2505      0.0000      0.0397      0.0056      0.0000      0.0476      0.0272      0.0000
 27      0.0000      0.2193      0.4362      0.0387      0.0654      0.1723      0.0000      0.0209      0.0338
 28      0.2044      0.3343      0.3931      0.0083      0.0078      0.2379      0.1606      0.0000      0.1567
 29      0.0000      0.3006      0.0000      0.0000      0.1247      0.2416      0.0503      0.0260      0.0396
 30      0.1681      0.3390      0.1758      0.0903      0.0492      1.3673      0.0622      0.0202      0.0501
 31      0.0000      0.2227      0.3295      0.0575      0.0096      0.2727      0.0607      0.0260      0.0000
 32      0.0000      0.3009      0.1308      0.1321      0.0453      0.1600      0.0000      0.0200      0.1451
 33      2.3295      0.2285      0.0407      0.0376      0.0232      0.2694      0.0338      0.0017      0.0000
 34      3.7800      0.2940      0.1522      0.0751      0.0421      0.2665      0.0345      0.2093      0.0651
 35      9.8930      1.3288      0.8668      1.5221      1.5724      1.7022      1.0314      0.5340      1.4958
 36      0.0000      0.3433      0.2287      0.0000      0.0184      0.1125      0.0219      0.0649      0.0366
 37      0.0000      0.3151      0.0891      0.0912      0.0000      0.3020      0.0005      0.0243      0.0407
 38     11.0519      0.3853      0.0000      0.0953      0.0043      0.6001      0.0504      0.0043      0.0114
 39      0.0000      0.2541      0.7122      0.0112      0.0249      0.0000      0.0197      0.0000      0.0273
 40      0.0000      0.2125      0.1565      0.0277      0.0294      0.0000      0.0908      0.0033      0.1235
 41      0.0000      0.3063      0.0000      0.0336      0.0000      0.0000      0.0428      0.0907      0.0059
 42      3.9143      0.2660      0.0788      0.0604      0.0194      0.6495      0.0348      0.0672      0.0736
 43      0.0000      0.2668      0.6010      0.0710      0.0785      0.0993      0.0544      0.0525      0.1602
 44      5.5465      0.8337      0.2941      0.9599      1.0901      0.3645      1.0236      1.0122      0.7910
 45      0.0000      0.2908      0.0000      0.0537      0.0113      0.1471      0.0412      0.0525      0.1442
 46      6.0283      0.3028      0.3781      0.0112      0.0018      0.2206      0.1020      0.0146      0.0245
 47      0.0000      0.3059      0.0337      0.0000      0.0620      0.0929      0.0322      0.0476      0.1289
 48      0.8033      0.3536      0.4683      0.0044      0.0036      0.5830      0.0108      0.0000      0.2065
 49      9.8038      1.2417      1.0079      1.1271      2.5597      0.6918      0.9224      0.9350      0.8736
 50      6.8675      1.8161      2.0057      2.1777      2.5022      2.5165      0.4289      2.4862      2.1085
 51      1.7911      4.2995      4.4106      4.5381      4.3393      4.8642      8.5657      3.1547      4.5207
 52      0.0000      0.2537      0.2138      0.0394      0.0000      0.1116      0.0126      0.0009      0.0000
 53      0.0000      0.3919      0.1886      0.0000      0.0211      0.0000      0.0000      0.0000      0.0724
 54     18.2519      0.3114      0.3318      0.0670      0.0000      0.4315      0.0257      0.0471      0.0000
 55      0.0000      0.2862      0.1065      0.0094      0.0223      0.0710      0.0000      0.0258      0.0000
 56      0.0000      0.2531      0.0000      0.0310      0.0478      0.3459      0.0489      0.0409      0.1401
 57      0.0000      0.2976      0.0726      0.0000      0.0061      0.1363      0.0143      0.0686      0.0000
 58      0.0000      0.3302      0.0000      0.0598      0.0473      0.2032      0.0331      0.0000      0.2295
 59      0.0000      0.3616      0.2038      0.0001      0.0059      0.3468      0.0000      0.0356      0.2971
 60      0.0609      4.4161      4.5190      4.9454      4.9501      4.6860      5.0077      4.9679      5.0130
 61      0.0000      9.2184     10.4900     10.4195      8.7047      9.1407     11.5082     10.5972      9.9747
 62      0.2558      0.3889      0.3928      0.0146      0.0636      0.3406      0.1307      0.0229      0.0948
 63      0.3984     13.1401     10.0509     17.2315     25.2892     13.6362     11.1201     16.0112     16.8840
 64      7.0484     25.9980     27.4919     30.1105     25.3832     27.6465     43.5011     35.3275     29.3463
 65      4.6668      4.1879      1.0613      6.0429      5.9918      4.3869      5.9985      1.9327      6.2057
 66      7.3078     18.0467     25.0238     17.9265     14.7752     16.8023     11.8869     17.9274     18.6869

# j      m_j: min, <> & last-chain-values for 1 ...  7 chains
  1  2.2759E-02  4.6752E-03  5.3808E-03  4.4803E-03  4.8415E-03  3.8331E-03  1.4799E-03  4.0362E-03  4.3244E-03
  2  2.7518E-03  1.7988E-03  1.8488E-03  1.8673E-03  2.5033E-03  2.2617E-03  1.2792E-03  2.0046E-03  1.8488E-03
  3  0.0000E+00  2.8507E-04  6.8799E-04  2.1596E-05  3.4379E-05  1.5142E-04  1.0275E-04  4.4790E-06  1.6799E-06
  4  0.0000E+00  2.8124E-04  0.0000E+00  1.4245E-05  4.9299E-06  0.0000E+00  9.0094E-05  5.9700E-05  0.0000E+00
  5  0.0000E+00  5.0365E-04  2.6187E-04  0.0000E+00  3.8117E-05  4.1132E-04  1.7622E-05  4.3828E-05  4.7779E-05
  6  0.0000E+00  7.4114E-04  0.0000E+00  1.4847E-04  1.6305E-04  2.8789E-04  5.0536E-05  1.0225E-04  7.5831E-05
  7  2.8237E-02  1.5184E-03  1.5584E-03  1.9659E-04  1.9637E-04  3.7015E-03  2.6961E-04  0.0000E+00  5.0349E-04
  8  1.5214E-03  2.1986E-03  1.4649E-03  1.9268E-04  6.5698E-04  2.5256E-03  3.7292E-05  6.2336E-05  5.3759E-04
  9  0.0000E+00  1.7229E-03  1.3087E-03  8.3450E-04  6.0497E-04  0.0000E+00  7.1896E-05  4.0335E-04  1.5290E-04
 10  0.0000E+00  2.1714E-03  0.0000E+00  8.6761E-04  8.0387E-04  1.3805E-03  1.0592E-03  9.4864E-05  2.7886E-04
 11  0.0000E+00  4.5220E-03  8.4292E-04  1.2024E-03  6.6002E-04  7.1239E-04  1.3371E-04  2.8657E-03  0.0000E+00
 12  0.0000E+00  7.6112E-03  1.3999E-02  6.2523E-04  6.2433E-04  0.0000E+00  0.0000E+00  1.5197E-05  8.4019E-05
 13  0.0000E+00  5.9116E-02  2.8164E-02  5.9100E-02  5.9279E-02  7.0733E-02  5.7548E-02  5.3929E-02  5.0162E-02
 14  5.0685E-01  7.3886E-02  1.0600E-01  2.1788E-05  1.0895E-02  9.1706E-02  1.7163E-02  1.4996E-02  3.0891E-02
 15  0.0000E+00  3.8332E-01  7.0382E-01  1.8377E-01  1.9429E-01  6.3225E-01  1.9108E-01  1.9858E-01  2.4683E-01
 16  3.8989E-01  2.0971E-01  1.1027E-01  4.2426E-02  0.0000E+00  2.9764E-01  3.0564E-02  3.4186E-03  0.0000E+00
 17  0.0000E+00  2.5320E-01  2.1181E-01  3.2332E-02  5.0836E-02  1.7133E-01  1.8341E-03  3.6606E-02  2.8339E-02
 18  2.9204E-03  3.1305E-03  1.7163E-03  2.9922E-03  3.1795E-03  1.6549E-03  1.4937E-03  6.3221E-03  3.0169E-03
 19  2.7891E-03  1.0823E-03  6.7437E-04  1.0312E-03  8.8736E-04  1.0507E-03  8.3936E-04  2.0620E-03  1.0289E-03
 20  5.7316E-03  3.0150E-04  4.2756E-04  5.3070E-05  4.9563E-05  6.3071E-04  2.4942E-05  2.7846E-05  5.3128E-05
 21  0.0000E+00  3.5693E-04  5.9305E-04  1.3922E-04  5.0541E-05  1.4481E-04  1.0843E-04  2.7455E-05  4.3778E-05
 22  0.0000E+00  5.3652E-04  4.0787E-04  7.4812E-05  0.0000E+00  0.0000E+00  2.2865E-05  3.4438E-05  2.9977E-04
 23  0.0000E+00  8.9666E-04  4.0340E-04  3.6921E-05  1.1935E-05  2.2306E-04  1.1664E-05  0.0000E+00  1.3271E-04
 24  2.1269E-02  1.1154E-03  1.9408E-04  7.0085E-05  3.4507E-05  1.1111E-03  1.4067E-04  0.0000E+00  1.3094E-04
 25  9.4355E-03  1.6047E-03  2.3875E-03  1.2351E-04  5.7572E-04  3.9141E-03  8.4982E-05  1.2894E-04  0.0000E+00
 26  0.0000E+00  2.2623E-03  0.0000E+00  3.3177E-04  5.1628E-05  0.0000E+00  4.4019E-04  2.3519E-04  0.0000E+00
 27  0.0000E+00  3.9644E-03  6.8915E-03  6.4813E-04  1.1991E-03  3.1230E-03  0.0000E+00  3.6197E-04  5.5871E-04
 28  1.5135E-02  1.7535E-02  1.8026E-02  4.0123E-04  4.1614E-04  1.2513E-02  8.6344E-03  0.0000E+00  7.5181E-03
 29  0.0000E+00  2.7478E-02  0.0000E+00  0.0000E+00  1.1560E-02  2.2146E-02  4.7111E-03  2.2702E-03  3.3093E-03
 30  4.5333E-02  6.4745E-02  2.9337E-02  1.5982E-02  9.5298E-03  2.6180E-01  1.2171E-02  3.6898E-03  8.7451E-03
 31  0.0000E+00  7.4803E-02  9.6761E-02  1.7883E-02  3.2854E-03  9.1856E-02  2.0878E-02  8.3592E-03  0.0000E+00
 32  0.0000E+00  1.3599E-01  5.1679E-02  5.5331E-02  2.0746E-02  7.2498E-02  0.0000E+00  8.6408E-03  5.9965E-02
 33  3.2908E+00  2.2860E-01  3.5584E-02  3.4858E-02  2.3513E-02  2.7024E-01  3.4631E-02  1.6159E-03  0.0000E+00
 34  7.2310E+00  3.9835E-01  1.8021E-01  9.4262E-02  5.7896E-02  3.6207E-01  4.7906E-02  2.7115E-01  8.0663E-02
 35  2.4283E-02  2.3102E-03  1.3173E-03  2.4516E-03  2.7724E-03  2.9674E-03  1.8373E-03  8.8774E-04  2.3783E-03
 36  0.0000E+00  2.4145E-04  1.4062E-04  0.0000E+00  1.3135E-05  7.9357E-05  1.5790E-05  4.3621E-05  2.3518E-05
 37  0.0000E+00  2.3977E-04  5.9255E-05  6.4317E-05  0.0000E+00  2.3038E-04  3.6056E-07  1.7694E-05  2.8336E-05
 38  3.2162E-02  7.9414E-04  0.0000E+00  1.8203E-04  8.9215E-06  1.2402E-03  1.0637E-04  8.3779E-06  2.1413E-05
 39  0.0000E+00  7.5417E-04  1.8475E-03  3.0842E-05  7.4987E-05  0.0000E+00  6.0051E-05  0.0000E+00  7.4103E-05
 40  0.0000E+00  1.0196E-03  6.5604E-04  1.2306E-04  1.4304E-04  0.0000E+00  4.4630E-04  1.5080E-05  5.4201E-04
 41  0.0000E+00  2.2847E-03  0.0000E+00  2.3226E-04  0.0000E+00  0.0000E+00  3.2713E-04  6.4734E-04  4.0303E-05
 42  7.5691E-02  3.6429E-03  9.4340E-04  7.6646E-04  2.7001E-04  8.9202E-03  4.8851E-04  8.7969E-04  9.2181E-04
 43  0.0000E+00  5.3355E-03  1.0505E-02  1.3158E-03  1.5920E-03  1.9900E-03  1.1145E-03  1.0033E-03  2.9295E-03
 44  2.6962E-01  2.8704E-02  8.8521E-03  3.0617E-02  3.8063E-02  1.2584E-02  3.6113E-02  3.3324E-02  2.4907E-02
 45  0.0000E+00  1.9864E-02  0.0000E+00  3.4013E-03  7.8365E-04  1.0077E-02  2.8871E-03  3.4284E-03  9.0105E-03
 46  1.0687E+00  3.8026E-02  4.1500E-02  1.3011E-03  2.3333E-04  2.7780E-02  1.3126E-02  1.7575E-03  2.8185E-03
 47  0.0000E+00  7.7846E-02  7.4898E-03  0.0000E+00  1.6011E-02  2.3702E-02  8.3984E-03  1.1586E-02  3.0006E-02
 48  5.0893E-01  1.5866E-01  1.8367E-01  1.8463E-03  1.6295E-03  2.6232E-01  4.9622E-03  0.0000E+00  8.4741E-02
 49  1.4116E+01  1.2663E+00  8.9845E-01  1.0648E+00  2.6475E+00  7.0745E-01  9.6392E-01  9.1180E-01  8.1486E-01
 50  1.8315E+01  3.4305E+00  3.3115E+00  3.8109E+00  4.7934E+00  4.7662E+00  8.3006E-01  4.4908E+00  3.6426E+00
 51  2.6184E-03  4.4518E-03  3.9918E-03  4.3531E-03  4.5567E-03  5.0500E-03  9.0879E-03  3.1235E-03  4.2809E-03
 52  0.0000E+00  1.3460E-04  9.9141E-05  1.9345E-05  0.0000E+00  5.9389E-05  6.8758E-06  4.5437E-07  0.0000E+00
 53  0.0000E+00  3.1324E-04  1.3173E-04  0.0000E+00  1.7113E-05  0.0000E+00  0.0000E+00  0.0000E+00  5.2929E-05
 54  4.2203E-02  5.1004E-04  4.7491E-04  1.0164E-04  0.0000E+00  7.0854E-04  4.3142E-05  7.3713E-05  0.0000E+00
 55  0.0000E+00  7.2167E-04  2.3472E-04  2.1918E-05  5.7065E-05  1.7957E-04  0.0000E+00  6.2099E-05  0.0000E+00
 56  0.0000E+00  1.2633E-03  0.0000E+00  1.4341E-04  2.4194E-04  1.7312E-03  2.5031E-04  1.9536E-04  6.3935E-04
 57  0.0000E+00  1.9714E-03  4.2013E-04  0.0000E+00  4.1315E-05  9.0549E-04  9.7331E-05  4.3472E-04  0.0000E+00
 58  0.0000E+00  3.6996E-03  0.0000E+00  6.2046E-04  5.3710E-04  2.2829E-03  3.8018E-04  0.0000E+00  2.3517E-03
 59  0.0000E+00  8.7196E-03  4.2959E-03  1.1245E-06  1.4520E-04  8.3847E-03  0.0000E+00  8.2146E-04  6.5530E-03
 60  3.8518E-03  1.9779E-01  1.7691E-01  2.0520E-01  2.2485E-01  2.1044E-01  2.2982E-01  2.1277E-01  2.0534E-01
 61  0.0000E+00  9.0213E-01  8.9730E-01  9.4462E-01  8.6391E-01  8.9692E-01  1.1540E+00  9.9168E-01  8.9273E-01
 62  6.4451E-02  6.9393E-02  6.1265E-02  2.4087E-03  1.1504E-02  6.0930E-02  2.3893E-02  3.9024E-03  1.5477E-02
 63  1.9968E-01  4.6647E+00  3.1187E+00  5.6670E+00  9.1048E+00  4.8538E+00  4.0449E+00  5.4353E+00  5.4817E+00
 64  9.7711E+00  2.5528E+01  2.3595E+01  2.7390E+01  2.5277E+01  2.7219E+01  4.3767E+01  3.3170E+01  2.6353E+01
 65  1.3676E+01  8.6926E+00  1.9255E+00  1.1620E+01  1.2613E+01  9.1300E+00  1.2757E+01  3.8360E+00  1.1780E+01
 66  3.0253E+01  5.2917E+01  6.4136E+01  4.8696E+01  4.3938E+01  4.9400E+01  3.5714E+01  5.0267E+01  5.0112E+01

# AV, chi2 & Mass for <> & i_chain = 1 ...  7 solutions
AV       0.5764      0.1048      0.1065      0.0685      0.1054      0.1661      0.0804      0.0737      0.0660
chi2 3.6393E-05  1.9979E-04  1.4041E-04  1.4444E-04  1.4343E-04  1.3973E-04  1.4223E-04  1.4349E-04  1.4403E-04
Mass 4.7078E-12  3.5280E-12  4.0456E-12  3.6268E-12  3.4816E-12  3.8202E-12  3.3322E-12  3.5385E-12  3.6615E-12
  -7.83                                  [v0_min (km/s) before EX0s...]
 233.11                                  [vd_min (km/s) before EX0s...]


## Synthetic spectrum (Best Model) ##l_obs f_obs f_syn wei
 3478    [Nl_obs]
 3741.00    0.50353   0.93833    0.000
 3742.00    0.53177   0.93821    0.000
 3743.00    0.52137   0.92637    0.000
 3744.00    0.50602   0.90580    0.000
 3745.00    0.48779   0.88033   -1.000
 3746.00    0.49509   0.85388   -1.000
 3747.00    0.51537   0.83072   -1.000
 3748.00    0.51719   0.81458   -1.000
 3749.00    0.51089   0.80860   -1.000
 3750.00    0.51100   0.81579   -1.000
 3751.00    0.51354   0.83632   -1.000
 3752.00    0.52843   0.86574   -1.000
 3753.00    0.54729   0.89760   -1.000
 3754.00    0.56138   0.92691   -1.000
 3755.00    0.57419   0.95041   -1.000
 3756.00    0.55692   0.96591   -1.000
 3757.00    0.53304   0.97337   -1.000
 3758.00    0.54342   0.97561   -1.000
 3759.00    0.55978   0.97643   -1.000
 3760.00    0.59063   0.97723   -1.000
 3761.00    0.62341   0.97679   -1.000
 3762.00    0.60570   0.97325   -1.000
 3763.00    0.58325   0.96544   -1.000
 3764.00    0.57792   0.95352   -1.000
 3765.00    0.57358   0.93847   -1.000
 3766.00    0.57521   0.92108   -1.000
 3767.00    0.57695   0.90318   -1.000
 3768.00    0.57524   0.88855   -1.000
 3769.00    0.57410   0.88016   -1.000
 3770.00    0.58664   0.87928   -1.000
 3771.00    0.59718   0.88747   -1.000
 3772.00    0.58152   0.90558   -1.000
 3773.00    0.56894   0.93098   -1.000
 3774.00    0.58332   0.95946   -1.000
 3775.00    0.59991   0.98838   -1.000
 3776.00    0.63085   1.01652   -1.000
 3777.00    0.65634   1.04274   -1.000
 3778.00    0.65429   1.06594   -1.000
 3779.00    0.65155   1.08551   -1.000
 3780.00    0.64595   1.10082   -1.000
 3781.00    0.63697   1.11056   -1.000
 3782.00    0.61652   1.11386   -1.000
 3783.00    0.60731   1.11102   -1.000
 3784.00    0.63027   1.10258   -1.000
 3785.00    0.64086   1.08877   -1.000
 3786.00    0.62122   1.07063   -1.000
 3787.00    0.60630   1.05060   -1.000
 3788.00    0.60132   1.03048   -1.000
 3789.00    0.59285   1.01011   -1.000
 3790.00    0.57799   0.98869   -1.000
 3791.00    0.56633   0.96523   -1.000
 3792.00    0.55980   0.93852   -1.000
 3793.00    0.56615   0.90831   -1.000
 3794.00    0.59059   0.87655   -1.000
 3795.00    0.59197   0.84705   -1.000
 3796.00    0.56485   0.82396   -1.000
 3797.00    0.53575   0.81072   -1.000
 3798.00    0.50448   0.81029   -1.000
 3799.00    0.49979   0.82476   -1.000
 3800.00    0.52062   0.85248   -1.000
 3801.00    0.55545   0.88780   -1.000
 3802.00    0.60215   0.92476   -1.000
 3803.00    0.63513   0.95949   -1.000
 3804.00    0.65787   0.98961   -1.000
 3805.00    0.68089   1.01376   -1.000
 3806.00    0.70411   1.03204   -1.000
 3807.00    0.70686   1.04615   -1.000
 3808.00    0.69787   1.05787   -1.000
 3809.00    0.66864   1.06679   -1.000
 3810.00    0.62928   1.07118   -1.000
 3811.00    0.59411   1.07007   -1.000
 3812.00    0.56075   1.06341   -1.000
 3813.00    0.53315   1.05171   -1.000
 3814.00    0.50769   1.03658   -1.000
 3815.00    0.49613   1.02013   -1.000
 3816.00    0.48892   1.00408   -1.000
 3817.00    0.52104   0.98961   -1.000
 3818.00    0.56346   0.97644   -1.000
 3819.00    0.55838   0.96390   -1.000
 3820.00    0.54312   0.95400   -1.000
 3821.00    0.51609   0.94939   -1.000
 3822.00    0.48706   0.94856   -1.000
 3823.00    0.46674   0.94700   -1.000
 3824.00    0.44753   0.94191   -1.000
 3825.00    0.45383   0.93334   -1.000
 3826.00    0.46242   0.92217   -1.000
 3827.00    0.47956   0.90805   -1.000
 3828.00    0.49715   0.88988   -1.000
 3829.00    0.48317   0.86722   -1.000
 3830.00    0.46857   0.84082   -1.000
 3831.00    0.45538   0.81198   -1.000
 3832.00    0.44320   0.78270   -1.000
 3833.00    0.45360   0.75645   -1.000
 3834.00    0.46289   0.73726   -1.000
 3835.00    0.45833   0.72848   -1.000
 3836.00    0.45533   0.73232   -1.000
 3837.00    0.46559   0.74832   -1.000
 3838.00    0.47759   0.77365   -1.000
 3839.00    0.50053   0.80557   -1.000
 3840.00    0.51214   0.84151   -1.000
 3841.00    0.46787   0.87877   -1.000
 3842.00    0.44082   0.91501   -1.000
 3843.00    0.48267   0.94751   -1.000
 3844.00    0.52050   0.97407   -1.000
 3845.00    0.54497   0.99437   -1.000
 3846.00    0.56572   1.00936   -1.000
 3847.00    0.57606   1.02017    0.000
 3848.00    0.58822   1.02736    0.000
 3849.00    0.60478   1.03114    0.000
 3850.00    0.60930   1.03260    0.000
 3851.00    0.58888   1.03351    0.000
 3852.00    0.57080   1.03409    0.000
 3853.00    0.55693   1.03273    0.000
 3854.00    0.55399   1.02884    0.000
 3855.00    0.56829   1.02363    0.000
 3856.00    0.56409   1.01862    0.000
 3857.00    0.53427   1.01518    0.000
 3858.00    0.50978   1.01357    0.000
 3859.00    0.49178   1.01341    0.000
 3860.00    0.50310   1.01543    0.000
 3861.00    0.54589   1.02034    0.000
 3862.00    0.56893   1.02684    0.000
 3863.00    0.57327   1.03243    0.000
 3864.00    0.56478   1.03534    0.000
 3865.00    0.54557   1.03527    0.000
 3866.00    0.55164   1.03273    0.000
 3867.00    0.57630   1.02825    0.000
 3868.00    0.56900   1.02290    0.000
 3869.00    0.54106   1.01774    0.000
 3870.00    0.51214   1.01274    0.000
 3871.00    0.48268   1.00788    0.000
 3872.00    0.47318   1.00418    0.000
 3873.00    0.47350   1.00264    0.000
 3874.00    0.49167   1.00264    0.000
 3875.00    0.51744   1.00146    0.000
 3876.00    0.54530   0.99659    0.000
 3877.00    0.57391   0.98808    0.000
 3878.00    0.57420   0.97759    0.000
 3879.00    0.56575   0.96643    0.000
 3880.00    0.56194   0.95379    0.000
 3881.00    0.55932   0.93737   -1.000
 3882.00    0.56340   0.91668   -1.000
 3883.00    0.56889   0.89346   -1.000
 3884.00    0.61386   0.86884   -1.000
 3885.00    0.66534   0.84289   -1.000
 3886.00    0.62323   0.81804   -1.000
 3887.00    0.56954   0.79973   -1.000
 3888.00    0.57363   0.79196   -1.000
 3889.00    0.58266   0.79650   -1.000
 3890.00    0.61819   0.81415   -1.000
 3891.00    0.65504   0.84279   -1.000
 3892.00    0.68414   0.87701   -1.000
 3893.00    0.71243   0.91127   -1.000
 3894.00    0.69645   0.94225   -1.000
 3895.00    0.68160   0.96909   -1.000
 3896.00    0.68973   0.99239   -1.000
 3897.00    0.69733   1.01205   -1.000
 3898.00    0.69880   1.02708   -1.000
 3899.00    0.69880   1.03805   -1.000
 3900.00    0.68680   1.04702   -1.000
 3901.00    0.67093   1.05531   -1.000
 3902.00    0.63147   1.06239   -1.000
 3903.00    0.59389   1.06803   -1.000
 3904.00    0.56535   1.07383   -1.000
 3905.00    0.54869   1.08063   -1.000
 3906.00    0.57851   1.08885   -1.000
 3907.00    0.60533   1.09956   -1.000
 3908.00    0.62233   1.11191   -1.000
 3909.00    0.63837   1.12355   -1.000
 3910.00    0.65175   1.13283   -1.000
 3911.00    0.67199   1.13905   -1.000
 3912.00    0.70843   1.14221   -1.000
 3913.00    0.73814   1.14186   -1.000
 3914.00    0.75414   1.13737   -1.000
 3915.00    0.75751   1.12904   -1.000
 3916.00    0.73846   1.11753   -1.000
 3917.00    0.73355   1.10401   -1.000
 3918.00    0.75061   1.08953   -1.000
 3919.00    0.75137   1.07477   -1.000
 3920.00    0.72989   1.06079   -1.000
 3921.00    0.71654   1.04890   -1.000
 3922.00    0.71296   1.03931   -1.000
 3923.00    0.70084   1.03030   -1.000
 3924.00    0.67968   1.01997   -1.000
 3925.00    0.66107   1.00709   -1.000
 3926.00    0.64486   0.99101   -1.000
 3927.00    0.61852   0.97231   -1.000
 3928.00    0.58383   0.95201   -1.000
 3929.00    0.53029   0.93128   -1.000
 3930.00    0.46308   0.91190   -1.000
 3931.00    0.42555   0.89556   -1.000
 3932.00    0.40691   0.88380   -1.000
 3933.00    0.41053   0.87819   -1.000
 3934.00    0.42653   0.88030   -1.000
 3935.00    0.42761   0.89053   -1.000
 3936.00    0.42145   0.90728   -1.000
 3937.00    0.44843   0.92787   -1.000
 3938.00    0.48926   0.94958   -1.000
 3939.00    0.52335   0.97037   -1.000
 3940.00    0.55503   0.98924   -1.000
 3941.00    0.57855   1.00554   -1.000
 3942.00    0.59959   1.01900   -1.000
 3943.00    0.62113   1.03013   -1.000
 3944.00    0.64278   1.04049   -1.000
 3945.00    0.66723   1.05227   -1.000
 3946.00    0.69225   1.06544   -1.000
 3947.00    0.71564   1.07708   -1.000
 3948.00    0.73878   1.08612   -1.000
 3949.00    0.76060   1.09428   -1.000
 3950.00    0.78226   1.10176   -1.000
 3951.00    0.79830   1.10622   -1.000
 3952.00    0.81387   1.10622   -1.000
 3953.00    0.80607   1.10333   -1.000
 3954.00    0.79720   1.09931   -1.000
 3955.00    0.78133   1.09229   -1.000
 3956.00    0.76656   1.07961   -1.000
 3957.00    0.81420   1.06220   -1.000
 3958.00    0.85438   1.04179   -1.000
 3959.00    0.75339   1.01724   -1.000
 3960.00    0.65817   0.98621    0.000
 3961.00    0.62793   0.94843    0.000
 3962.00    0.59758   0.90685    0.000
 3963.00    0.56643   0.86408    0.000
 3964.00    0.53546   0.81999    0.000
 3965.00    0.50557   0.77544    0.000
 3966.00    0.48454   0.73410    0.000
 3967.00    0.50513   0.69982    0.000
 3968.00    0.51441   0.67571    0.000
 3969.00    0.48032   0.66467    0.000
 3970.00    0.46224   0.66961    0.000
 3971.00    0.49535   0.69158    0.000
 3972.00    0.52096   0.72793    0.000
 3973.00    0.52623   0.77375    0.000
 3974.00    0.54998   0.82486    0.000
 3975.00    0.61663   0.87782    0.000
 3976.00    0.67342   0.92861    0.000
 3977.00    0.71043   0.97416    0.000
 3978.00    0.74178   1.01353    0.000
 3979.00    0.76325   1.04671    0.000
 3980.00    0.78124   1.07377    0.000
 3981.00    0.79391   1.09473   -1.000
 3982.00    0.79699   1.11073   -1.000
 3983.00    0.78715   1.12447   -1.000
 3984.00    0.80554   1.13754   -1.000
 3985.00    0.85737   1.14985   -1.000
 3986.00    0.88718   1.16100   -1.000
 3987.00    0.89399   1.17131   -1.000
 3988.00    0.90517   1.18115   -1.000
 3989.00    0.92038   1.18893   -1.000
 3990.00    0.93835   1.19381   -1.000
 3991.00    0.95855   1.19727   -1.000
 3992.00    0.96493   1.19987   -1.000
 3993.00    0.96141   1.20094   -1.000
 3994.00    0.95410   1.20063   -1.000
 3995.00    0.94441   1.20042   -1.000
 3996.00    0.92818   1.20154   -1.000
 3997.00    0.90837   1.20407   -1.000
 3998.00    0.89833   1.20836   -1.000
 3999.00    0.89295   1.21428   -1.000
 4000.00    0.90364   1.21913   -1.000
 4001.00    0.92095   1.22042   -1.000
 4002.00    0.91251   1.21910   -1.000
 4003.00    0.89503   1.21633   -1.000
 4004.00    0.89942   1.21096   -1.000
 4005.00    0.91030   1.20355   -1.000
 4006.00    0.89977   1.19883   -1.000
 4007.00    0.88397   1.19998   -1.000
 4008.00    0.93122   1.20490   -1.000
 4009.00    0.99099   1.21104   -1.000
 4010.00    0.99946   1.21893   -1.000
 4011.00    0.99996   1.22899   -1.000
 4012.00    1.00798   1.23906   -1.000
 4013.00    1.01686   1.24739   -1.000
 4014.00    1.04397   1.25430   -1.000
 4015.00    1.07250   1.26025   -1.000
 4016.00    1.03522   1.26405   -1.000
 4017.00    0.99516   1.26453   -1.000
 4018.00    1.04514   1.26300   -1.000
 4019.00    1.09437   1.26036   -1.000
 4020.00    1.07435   1.25466   -1.000
 4021.00    1.05617   1.24513   -1.000
 4022.00    1.07040   1.23435   -1.000
 4023.00    1.08230   1.22475   -1.000
 4024.00    1.06925   1.21586   -1.000
 4025.00    1.05483   1.20692   -1.000
 4026.00    1.03002   1.19958   -1.000
 4027.00    1.00399   1.19580   -1.000
 4028.00    0.97096   1.19411   -1.000
 4029.00    0.94668   1.19070   -1.000
 4030.00    0.96248   1.18470   -1.000
 4031.00    0.96125   1.18009   -1.000
 4032.00    0.89615   1.18088   -1.000
 4033.00    0.84450   1.18680   -1.000
 4034.00    0.83507   1.19648   -1.000
 4035.00    0.86761   1.20954   -1.000
 4036.00    1.01179   1.22513   -1.000
 4037.00    1.09913   1.24054   -1.000
 4038.00    1.05667   1.25159   -1.000
 4039.00    1.03067   1.25505   -1.000
 4040.00    1.03722   1.25008   -1.000
 4041.00    1.02438   1.23916   -1.000
 4042.00    0.97815   1.22657   -1.000
 4043.00    0.94217   1.21388   -1.000
 4044.00    0.92165   1.20075   -1.000
 4045.00    0.92522   1.19022   -1.000
 4046.00    0.96071   1.18805   -1.000
 4047.00    0.99774   1.19596   -1.000
 4048.00    1.03656   1.20867   -1.000
 4049.00    1.05425   1.22043   -1.000
 4050.00    1.05020   1.22986   -1.000
 4051.00    1.03160   1.23656   -1.000
 4052.00    0.99979   1.23878   -1.000
 4053.00    0.99077   1.23551   -1.000
 4054.00    1.00000   1.22845   -1.000
 4055.00    0.98396   1.22076   -1.000
 4056.00    0.95013   1.21414   -1.000
 4057.00    0.92649   1.20739   -1.000
 4058.00    0.90914   1.19951   -1.000
 4059.00    0.92347   1.19218   -1.000
 4060.00    0.95489   1.18718   -1.000
 4061.00    0.94233   1.18312   -1.000
 4062.00    0.90917   1.17684   -1.000
 4063.00    0.88522   1.16949   -1.000
 4064.00    0.86499   1.16688   -1.000
 4065.00    0.89258   1.17069   -1.000
 4066.00    0.93666   1.17506   -1.000
 4067.00    0.95838   1.17613   -1.000
 4068.00    0.97360   1.17749   -1.000
 4069.00    0.95180   1.18141   -1.000
 4070.00    0.92111   1.18298   -1.000
 4071.00    0.92759   1.17848   -1.000
 4072.00    0.94128   1.17232   -1.000
 4073.00    0.98085   1.16998   -1.000
 4074.00    1.02432   1.16968   -1.000
 4075.00    1.04008   1.16787   -1.000
 4076.00    1.05278   1.16627   -1.000
 4077.00    0.98030   1.16877   -1.000
 4078.00    0.90159   1.17621   -1.000
 4079.00    0.92767   1.18646   -1.000
 4080.00    0.95776   1.19763   -1.000
 4081.00    0.96198   1.20834   -1.000
 4082.00    0.96682   1.21693   -1.000
 4083.00    1.00064   1.22301   -1.000
 4084.00    1.03146   1.22761   -1.000
 4085.00    1.01285   1.23149   -1.000
 4086.00    0.99723   1.23494   -1.000
 4087.00    1.01233   1.23753   -1.000
 4088.00    1.02749   1.23786   -1.000
 4089.00    1.04308   1.23488   -1.000
 4090.00    1.05807   1.22770   -1.000
 4091.00    1.06979   1.21480   -1.000
 4092.00    1.08067   1.19571    0.000
 4093.00    1.08777   1.17201    0.000
 4094.00    1.08065   1.14444    0.000
 4095.00    1.02125   1.11128    0.000
 4096.00    0.97421   1.07287    0.000
 4097.00    0.96518   1.03349    0.000
 4098.00    0.95578   0.99830    0.000
 4099.00    0.94546   0.96932    0.000
 4100.00    0.93762   0.94628    0.000
 4101.00    0.93539   0.93232    0.000
 4102.00    0.93358   0.93320    0.000
 4103.00    0.93261   0.94957    0.000
 4104.00    0.92927   0.97568    0.000
 4105.00    0.92193   1.00607    0.000
 4106.00    0.92178   1.03818    0.000
 4107.00    0.93233   1.06943    0.000
 4108.00    0.95768   1.09693    0.000
 4109.00    1.00237   1.11952    0.000
 4110.00    1.03142   1.13774    0.000
 4111.00    1.04246   1.15274    0.000
 4112.00    1.04806   1.16579    0.000
 4113.00    1.04815   1.17738   -1.000
 4114.00    1.04899   1.18592   -1.000
 4115.00    1.05050   1.19074   -1.000
 4116.00    1.03712   1.19353   -1.000
 4117.00    1.01199   1.19466   -1.000
 4118.00    1.01416   1.19318   -1.000
 4119.00    1.03528   1.19060   -1.000
 4120.00    1.02855   1.19050   -1.000
 4121.00    1.00489   1.19334   -1.000
 4122.00    0.96026   1.19672   -1.000
 4123.00    0.90448   1.19969   -1.000
 4124.00    0.92185   1.20287   -1.000
 4125.00    0.97295   1.20552   -1.000
 4126.00    1.00244   1.20460   -1.000
 4127.00    1.02336   1.19921   -1.000
 4128.00    1.00454   1.19139   -1.000
 4129.00    0.97228   1.18406   -1.000
 4130.00    0.96621   1.17794   -1.000
 4131.00    0.96759   1.17339   -1.000
 4132.00    0.95309   1.17174   -1.000
 4133.00    0.93486   1.17423   -1.000
 4134.00    0.96004   1.18107   -1.000
 4135.00    0.99341   1.19069   -1.000
 4136.00    0.98623   1.20018   -1.000
 4137.00    0.97313   1.20598   -1.000
 4138.00    0.96542   1.20606   -1.000
 4139.00    0.95827   1.20038   -1.000
 4140.00    0.97330   1.19131   -1.000
 4141.00    0.98987   1.18091   -1.000
 4142.00    0.97656   1.16855   -1.000
 4143.00    0.96222   1.15621   -1.000
 4144.00    0.99577   1.14995   -1.000
 4145.00    1.02719   1.15199   -1.000
 4146.00    0.98541   1.15788   -1.000
 4147.00    0.94404   1.16363   -1.000
 4148.00    0.90918   1.16868   -1.000
 4149.00    0.88130   1.17268   -1.000
 4150.00    0.92216   1.17483   -1.000
 4151.00    0.95630   1.17561   -1.000
 4152.00    0.94262   1.17530   -1.000
 4153.00    0.93652   1.17471   -1.000
 4154.00    0.97184   1.17591   -1.000
 4155.00    0.99805   1.18006   -1.000
 4156.00    0.98443   1.18599   -1.000
 4157.00    0.97391   1.19311   -1.000
 4158.00    0.97453   1.20268   -1.000
 4159.00    0.97226   1.21310   -1.000
 4160.00    0.96124   1.22100   -1.000
 4161.00    0.96182   1.22603   -1.000
 4162.00    0.99219   1.22947   -1.000
 4163.00    1.01276   1.23008   -1.000
 4164.00    1.01172   1.22664   -1.000
 4165.00    1.01575   1.22126   -1.000
 4166.00    1.02950   1.21527   -1.000
 4167.00    1.01963   1.20728   -1.000
 4168.00    0.97028   1.19730   -1.000
 4169.00    0.93315   1.18826   -1.000
 4170.00    0.91391   1.18083   -1.000
 4171.00    0.89235   1.17283   -1.000
 4172.00    0.86780   1.16384   -1.000
 4173.00    0.89121   1.15690   -1.000
 4174.00    0.96902   1.15432   -1.000
 4175.00    0.97882   1.15527   -1.000
 4176.00    0.92055   1.15761   -1.000
 4177.00    0.90867   1.16031   -1.000
 4178.00    0.93774   1.16421   -1.000
 4179.00    0.95258   1.17018   -1.000
 4180.00    0.95637   1.17683   -1.000
 4181.00    0.95276   1.18211   -1.000
 4182.00    0.94409   1.18517   -1.000
 4183.00    0.93783   1.18706   -1.000
 4184.00    0.93300   1.18974   -1.000
 4185.00    0.93801   1.19302   -1.000
 4186.00    0.94816   1.19403   -1.000
 4187.00    1.05846   1.19245    0.573
 4188.00    1.21419   1.19317    0.233
 4189.00    1.26244   1.19798    0.200
 4190.00    1.26875   1.20162    0.200
 4191.00    1.22665   1.20094    0.199
 4192.00    1.16847   1.19912    0.197
 4193.00    1.17890   1.19748    0.197
 4194.00    1.20845   1.19164    0.198
 4195.00    1.22468   1.18053    0.198
 4196.00    1.23785   1.16876    0.199
 4197.00    1.23915   1.15868    0.200
 4198.00    1.23827   1.14984    0.202
 4199.00    1.24092   1.14449    0.201
 4200.00    1.24406   1.14484    0.199
 4201.00    1.20621   1.14917    0.196
 4202.00    1.16419   1.15657    0.193
 4203.00    1.14491   1.16830    0.192
 4204.00    1.12710   1.18290    0.191
 4205.00    1.15544   1.19650    0.192
 4206.00    1.18514   1.20806    0.193
 4207.00    1.18270   1.21835    0.195
 4208.00    1.18225   1.22656    0.197
 4209.00    1.24003   1.23053    0.197
 4210.00    1.29439   1.22999    0.196
 4211.00    1.29881   1.22705    0.196
 4212.00    1.29933   1.22428    0.195
 4213.00    1.26292   1.22278    0.195
 4214.00    1.23257   1.22161    0.195
 4215.00    1.24388   1.22077    0.193
 4216.00    1.25366   1.22335    0.192
 4217.00    1.25533   1.23022    0.192
 4218.00    1.25580   1.23551    0.191
 4219.00    1.25115   1.23453    0.192
 4220.00    1.25090   1.22825    0.192
 4221.00    1.26611   1.21671    0.194
 4222.00    1.26093   1.19721    0.195
 4223.00    1.19537   1.17252    0.192
 4224.00    1.13740   1.15019    0.190
 4225.00    1.09859   1.13308    0.189
 4226.00    1.08042   1.12126    0.189
 4227.00    1.10711   1.11873    0.188
 4228.00    1.11462   1.12802    0.186
 4229.00    1.08597   1.14362    0.183
 4230.00    1.08469   1.15982    0.181
 4231.00    1.12848   1.17494    0.181
 4232.00    1.15885   1.18623    0.181
 4233.00    1.16984   1.19243    0.182
 4234.00    1.17809   1.19645    0.183
 4235.00    1.18285   1.19915    0.184
 4236.00    1.18284   1.20036    0.183
 4237.00    1.17749   1.20391    0.181
 4238.00    1.17262   1.21135    0.179
 4239.00    1.16821   1.22010    0.177
 4240.00    1.17718   1.23040    0.178
 4241.00    1.19779   1.24264    0.180
 4242.00    1.24149   1.25239    0.182
 4243.00    1.30288   1.25726    0.184
 4244.00    1.28183   1.25977    0.184
 4245.00    1.20522   1.25866    0.181
 4246.00    1.22229   1.24989    0.185
 4247.00    1.29468   1.23639    0.193
 4248.00    1.29964   1.22442    0.197
 4249.00    1.26986   1.21336    0.198
 4250.00    1.22873   1.20036    0.195
 4251.00    1.18251   1.19032    0.190
 4252.00    1.19077   1.18808    0.189
 4253.00    1.21992   1.18897    0.190
 4254.00    1.20905   1.18787    0.186
 4255.00    1.18513   1.18799    0.181
 4256.00    1.15343   1.19221    0.179
 4257.00    1.11960   1.19722    0.177
 4258.00    1.14909   1.20054    0.179
 4259.00    1.19276   1.20425    0.182
 4260.00    1.21924   1.21012    0.182
 4261.00    1.24265   1.21862    0.183
 4262.00    1.26495   1.22944    0.184
 4263.00    1.28709   1.23895    0.186
 4264.00    1.28258   1.24377    0.185
 4265.00    1.27546   1.24436    0.183
 4266.00    1.22644   1.23946    0.182
 4267.00    1.17486   1.22551    0.181
 4268.00    1.15822   1.20585    0.192
 4269.00    1.14250   1.18706    0.204
 4270.00    1.12266   1.16863    0.202
 4271.00    1.10139   1.15001    0.201
 4272.00    1.04201   1.13888    0.200
 4273.00    0.99022   1.13977    0.199
 4274.00    1.04262   1.14687    0.189
 4275.00    1.09595   1.15641    0.182
 4276.00    1.15770   1.17040    0.182
 4277.00    1.21185   1.18738    0.183
 4278.00    1.21539   1.20191    0.183
 4279.00    1.21874   1.21095    0.183
 4280.00    1.22112   1.21506    0.182
 4281.00    1.21662   1.21571    0.181
 4282.00    1.18333   1.21325   -2.000
 4283.00    1.16097   1.20830   -2.000
 4284.00    1.17629   1.20142   -2.000
 4285.00    1.19151   1.19156   -2.000
 4286.00    1.20641   1.18019   -2.000
 4287.00    1.21966   1.17123   -2.000
 4288.00    1.22881   1.16468   -2.000
 4289.00    1.23495   1.15774   -2.000
 4290.00    1.23465   1.15182   -2.000
 4291.00    1.22966   1.15059   -2.000
 4292.00    1.21596   1.15296   -2.000
 4293.00    1.20197   1.15359   -2.000
 4294.00    1.18751   1.14916   -2.000
 4295.00    1.17480   1.14142   -2.000
 4296.00    1.16457   1.13163   -2.000
 4297.00    1.14745   1.11880   -2.000
 4298.00    1.12169   1.10254    0.182
 4299.00    1.09011   1.08463    0.179
 4300.00    1.05211   1.06931    0.177
 4301.00    1.03332   1.05881    0.176
 4302.00    1.03322   1.05017    0.176
 4303.00    1.00990   1.04170    0.176
 4304.00    0.96665   1.03594    0.177
 4305.00    0.94325   1.03335    0.175
 4306.00    0.93485   1.03255    0.173
 4307.00    0.94504   1.03405    0.173
 4308.00    0.96757   1.04007    0.174
 4309.00    0.99297   1.05287    0.175
 4310.00    1.02006   1.07250    0.177
 4311.00    1.04912   1.09774    0.176
 4312.00    1.07917   1.12868    0.173
 4313.00    1.13524   1.16370    0.173
 4314.00    1.20271   1.19794    0.173
 4315.00    1.23875   1.22964    0.174
 4316.00    1.26293   1.25846    0.176
 4317.00    1.28861   1.27900    0.177
 4318.00    1.31476   1.28761    0.177
 4319.00    1.31838   1.28638    0.179
 4320.00    1.31597   1.27652    0.180
 4321.00    1.32646   1.25802    0.180
 4322.00    1.33976   1.23537    0.180
 4323.00    1.30191   1.21402    0.180
 4324.00    1.25515   1.19729    0.181
 4325.00    1.22237   1.18677    0.179
 4326.00    1.19144   1.18452    0.176
 4327.00    1.19316   1.19215    0.175
 4328.00    1.19793   1.20674    0.175
 4329.00    1.25660   1.22093    0.174
 4330.00    1.31836   1.23024    0.000
 4331.00    1.33937   1.23575    0.000
 4332.00    1.35919   1.23513    0.000
 4333.00    1.35063   1.22195    0.000
 4334.00    1.34211   1.19691    0.000
 4335.00    1.33481   1.16643    0.000
 4336.00    1.32693   1.13048    0.000
 4337.00    1.31133   1.08935    0.000
 4338.00    1.29300   1.05425    0.000
 4339.00    1.25074   1.03166    0.000
 4340.00    1.21563   1.01824    0.000
 4341.00    1.22670   1.01837    0.000
 4342.00    1.24113   1.03744    0.000
 4343.00    1.27249   1.06567    0.000
 4344.00    1.29035   1.09481    0.000
 4345.00    1.25312   1.12841    0.000
 4346.00    1.22715   1.16230    0.000
 4347.00    1.23930   1.18544    0.000
 4348.00    1.25777   1.19950    0.000
 4349.00    1.29426   1.21246    0.000
 4350.00    1.30739   1.22149    0.000
 4351.00    1.26356   1.22227   -1.000
 4352.00    1.23479   1.22315   -1.000
 4353.00    1.23769   1.23218   -1.000
 4354.00    1.24766   1.24379   -1.000
 4355.00    1.27056   1.25224   -1.000
 4356.00    1.28525   1.26304   -1.000
 4357.00    1.28680   1.27928   -1.000
 4358.00    1.30970   1.29384   -1.000
 4359.00    1.36252   1.30329   -1.000
 4360.00    1.41574   1.31340   -1.000
 4361.00    1.46942   1.32627   -1.000
 4362.00    1.47191   1.33583    0.703
 4363.00    1.41870   1.33897    0.228
 4364.00    1.39712   1.34037    0.171
 4365.00    1.40587   1.34175    0.172
 4366.00    1.41239   1.33799    0.173
 4367.00    1.41701   1.32796    0.174
 4368.00    1.39571   1.31781    0.174
 4369.00    1.35510   1.30972    0.172
 4370.00    1.33409   1.29958    0.171
 4371.00    1.32590   1.28775    0.171
 4372.00    1.31359   1.27888    0.170
 4373.00    1.29891   1.27349    0.169
 4374.00    1.29059   1.26860    0.169
 4375.00    1.28545   1.26402    0.170
 4376.00    1.27053   1.26105    0.170
 4377.00    1.25139   1.25866    0.169
 4378.00    1.24408   1.25282    0.169
 4379.00    1.24114   1.23995    0.170
 4380.00    1.24386   1.22147    0.171
 4381.00    1.24835   1.20293    0.171
 4382.00    1.20755   1.18537    0.169
 4383.00    1.15490   1.16689    0.166
 4384.00    1.15569   1.15276    0.165
 4385.00    1.16790   1.15084    0.164
 4386.00    1.18790   1.15830    0.165
 4387.00    1.20921   1.16705    0.167
 4388.00    1.21962   1.17870    0.166
 4389.00    1.22864   1.19688    0.165
 4390.00    1.24591   1.21563    0.165
 4391.00    1.26392   1.23007    0.165
 4392.00    1.28342   1.24430    0.166
 4393.00    1.30299   1.26018    0.167
 4394.00    1.31413   1.27306    0.167
 4395.00    1.32485   1.28204    0.167
 4396.00    1.31514   1.28998    0.166
 4397.00    1.30472   1.29495    0.166
 4398.00    1.27880   1.29473    0.167
 4399.00    1.25646   1.29048    0.168
 4400.00    1.27844   1.28064    0.169
 4401.00    1.29569   1.26647    0.169
 4402.00    1.27305   1.25514    0.168
 4403.00    1.25155   1.24580    0.167
 4404.00    1.23719   1.23303    0.166
 4405.00    1.23098   1.22540    0.166
 4406.00    1.26483   1.23157    0.168
 4407.00    1.28886   1.24198    0.169
 4408.00    1.27370   1.24979    0.168
 4409.00    1.26687   1.26308    0.167
 4410.00    1.28766   1.28082    0.166
 4411.00    1.31675   1.29112    0.166
 4412.00    1.36913   1.29519    0.167
 4413.00    1.39967   1.30036    0.168
 4414.00    1.37787   1.30216    0.168
 4415.00    1.36478   1.29969    0.169
 4416.00    1.36974   1.30194    0.170
 4417.00    1.37349   1.30839    0.170
 4418.00    1.37506   1.31246    0.168
 4419.00    1.36673   1.31605    0.167
 4420.00    1.34280   1.32217    0.166
 4421.00    1.34491   1.32646    0.166
 4422.00    1.38297   1.32591    0.167
 4423.00    1.38911   1.32415    0.167
 4424.00    1.35640   1.32407    0.166
 4425.00    1.34069   1.32367    0.166
 4426.00    1.34322   1.32053    0.166
 4427.00    1.34269   1.31674    0.167
 4428.00    1.33927   1.31599    0.168
 4429.00    1.32971   1.31495    0.167
 4430.00    1.31502   1.30907    0.165
 4431.00    1.32330   1.30301    0.165
 4432.00    1.34843   1.30105    0.167
 4433.00    1.36099   1.29977    0.168
 4434.00    1.36543   1.29774    0.169
 4435.00    1.36020   1.29939    0.169
 4436.00    1.34952   1.30590    0.169
 4437.00    1.35427   1.31320    0.170
 4438.00    1.36659   1.31925    0.173
 4439.00    1.35613   1.32463    0.172
 4440.00    1.33599   1.32884    0.170
 4441.00    1.33522   1.33213    0.169
 4442.00    1.34150   1.33575    0.169
 4443.00    1.36560   1.33929    0.169
 4444.00    1.39518   1.34364    0.170
 4445.00    1.39940   1.35153    0.169
 4446.00    1.39713   1.35887    0.168
 4447.00    1.42925   1.36120    0.168
 4448.00    1.46854   1.36288    0.168
 4449.00    1.45986   1.36351    0.169
 4450.00    1.44331   1.35644    0.170
 4451.00    1.43362   1.34348    0.169
 4452.00    1.42477   1.33028    0.167
 4453.00    1.37696   1.31643    0.165
 4454.00    1.32584   1.29973    0.163
 4455.00    1.29433   1.28317    0.164
 4456.00    1.26378   1.27184    0.166
 4457.00    1.26418   1.26490    0.164
 4458.00    1.26501   1.25828    0.162
 4459.00    1.26142   1.25501    0.162
 4460.00    1.25859   1.25964    0.163
 4461.00    1.27106   1.26582    0.000
 4462.00    1.28438   1.27037    0.000
 4463.00    1.30772   1.27910    0.000
 4464.00    1.33173   1.28949    0.000
 4465.00    1.36125   1.29488    0.000
 4466.00    1.38357   1.29838    0.000
 4467.00    1.36209   1.30399    0.000
 4468.00    1.34597   1.30838    0.000
 4469.00    1.35554   1.31210    0.000
 4470.00    1.37262   1.32025    0.000
 4471.00    1.41898   1.33127    0.000
 4472.00    1.44940   1.34307    0.000
 4473.00    1.42795   1.35761    0.000
 4474.00    1.41399   1.37265    0.000
 4475.00    1.42063   1.38270    0.000
 4476.00    1.42141   1.38809    0.000
 4477.00    1.40839   1.39072    0.000
 4478.00    1.39273   1.38887    0.000
 4479.00    1.37169   1.38321    0.000
 4480.00    1.36045   1.37807    0.000
 4481.00    1.36657   1.37545    0.000
 4482.00    1.38331   1.37562    0.160
 4483.00    1.41650   1.37948    0.162
 4484.00    1.42980   1.38486    0.162
 4485.00    1.41602   1.38889    0.162
 4486.00    1.41214   1.39140    0.161
 4487.00    1.42013   1.39195    0.161
 4488.00    1.43241   1.38927    0.161
 4489.00    1.44921   1.38418    0.161
 4490.00    1.44800   1.37832    0.161
 4491.00    1.42998   1.37258    0.161
 4492.00    1.42615   1.36889    0.161
 4493.00    1.43398   1.36720    0.162
 4494.00    1.43381   1.36648    0.162
 4495.00    1.42784   1.36939    0.163
 4496.00    1.43110   1.37695    0.163
 4497.00    1.44024   1.38635    0.163
 4498.00    1.43536   1.39634    0.162
 4499.00    1.42270   1.40974    0.161
 4500.00    1.43708   1.42570    0.161
 4501.00    1.46451   1.43899    0.161
 4502.00    1.48106   1.45095    0.161
 4503.00    1.49307   1.46394    0.162
 4504.00    1.49652   1.47360    0.161
 4505.00    1.49691   1.47804    0.160
 4506.00    1.49348   1.48050    0.160
 4507.00    1.48889   1.48115    0.161
 4508.00    1.50545   1.47782    0.161
 4509.00    1.52732   1.47173    0.160
 4510.00    1.51022   1.46497    0.159
 4511.00    1.48521   1.45686    0.159
 4512.00    1.46023   1.44798    0.159
 4513.00    1.43525   1.44063    0.159
 4514.00    1.43076   1.43406    0.159
 4515.00    1.42871   1.42851    0.160
 4516.00    1.44271   1.42631    0.160
 4517.00    1.45800   1.42565    0.159
 4518.00    1.42549   1.42451    0.158
 4519.00    1.39080   1.42259    0.157
 4520.00    1.42260   1.41947    0.157
 4521.00    1.45466   1.41416    0.158
 4522.00    1.45828   1.40335    0.160
 4523.00    1.46044   1.38809    0.161
 4524.00    1.43514   1.37216    0.158
 4525.00    1.41074   1.35471    0.156
 4526.00    1.39649   1.33621    0.156
 4527.00    1.37856   1.32062    0.157
 4528.00    1.33185   1.30917    0.156
 4529.00    1.29337   1.30234    0.155
 4530.00    1.30365   1.30002    0.155
 4531.00    1.31916   1.30108    0.155
 4532.00    1.35915   1.30610    0.157
 4533.00    1.39195   1.31530    0.159
 4534.00    1.39732   1.32688    0.159
 4535.00    1.39555   1.33790    0.159
 4536.00    1.37104   1.35000    0.160
 4537.00    1.36316   1.36326    0.160
 4538.00    1.40022   1.37292    0.159
 4539.00    1.43453   1.37972    0.158
 4540.00    1.46248   1.38573    0.159
 4541.00    1.47710   1.38809    0.159
 4542.00    1.46504   1.38753    0.159
 4543.00    1.44356   1.38769    0.158
 4544.00    1.40563   1.38651    0.157
 4545.00    1.38659   1.38253    0.157
 4546.00    1.39642   1.37866    0.157
 4547.00    1.40746   1.37694    0.158
 4548.00    1.42014   1.37490    0.159
 4549.00    1.41411   1.37021    0.159
 4550.00    1.38598   1.36827    0.000
 4551.00    1.37647   1.37029    0.000
 4552.00    1.38637   1.37136    0.000
 4553.00    1.39859   1.37452    0.000
 4554.00    1.41293   1.38314    0.000
 4555.00    1.42071   1.39311    0.000
 4556.00    1.42317   1.40344    0.000
 4557.00    1.44014   1.41536    0.000
 4558.00    1.46745   1.42633    0.000
 4559.00    1.49377   1.43440    0.000
 4560.00    1.51946   1.43861    0.000
 4561.00    1.52133   1.43968    0.000
 4562.00    1.51017   1.43899    0.000
 4563.00    1.49379   1.43688    0.000
 4564.00    1.47493   1.43462    0.000
 4565.00    1.47125   1.43292    0.000
 4566.00    1.47379   1.43353    0.000
 4567.00    1.48618   1.43637    0.000
 4568.00    1.50202   1.43701    0.000
 4569.00    1.49905   1.43826    0.000
 4570.00    1.49051   1.44318    0.000
 4571.00    1.48150   1.44408    0.000
 4572.00    1.47239   1.44206    0.000
 4573.00    1.46149   1.44405    0.000
 4574.00    1.45023   1.44407    0.000
 4575.00    1.44877   1.43868    0.000
 4576.00    1.44883   1.43333    0.000
 4577.00    1.44928   1.42742    0.000
 4578.00    1.44977   1.41882    0.000
 4579.00    1.43136   1.41041    0.000
 4580.00    1.41149   1.40291    0.000
 4581.00    1.42956   1.39710    0.000
 4582.00    1.44920   1.39484    0.000
 4583.00    1.42531   1.39442    0.000
 4584.00    1.40170   1.39632    0.000
 4585.00    1.40666   1.40139    0.000
 4586.00    1.41265   1.40683    0.000
 4587.00    1.43664   1.41146    0.000
 4588.00    1.46012   1.41509    0.000
 4589.00    1.47815   1.41683    0.000
 4590.00    1.49337   1.41640    0.000
 4591.00    1.48738   1.41313    0.000
 4592.00    1.47871   1.40787    0.000
 4593.00    1.45464   1.40334    0.000
 4594.00    1.43599   1.39876    0.000
 4595.00    1.44211   1.39428    0.000
 4596.00    1.44395   1.39283    0.000
 4597.00    1.42982   1.39191    0.000
 4598.00    1.41829   1.39138    0.000
 4599.00    1.41491   1.39404    0.000
 4600.00    1.41106   1.39663    0.000
 4601.00    1.40601   1.39922    0.000
 4602.00    1.41075   1.40451    0.000
 4603.00    1.43780   1.41128    0.000
 4604.00    1.46386   1.41897    0.000
 4605.00    1.48797   1.42901    0.000
 4606.00    1.49169   1.44042    0.000
 4607.00    1.46037   1.45059    0.000
 4608.00    1.45271   1.46045    0.000
 4609.00    1.48067   1.46965    0.000
 4610.00    1.49234   1.47468    0.000
 4611.00    1.48244   1.47818    0.000
 4612.00    1.49145   1.48177    0.000
 4613.00    1.52252   1.48146    0.000
 4614.00    1.53411   1.48166    0.000
 4615.00    1.52568   1.48396    0.000
 4616.00    1.51674   1.48266    0.000
 4617.00    1.50733   1.48274    0.000
 4618.00    1.50844   1.48617    0.000
 4619.00    1.51797   1.48531    0.000
 4620.00    1.52654   1.48432    0.000
 4621.00    1.53446   1.48736    0.000
 4622.00    1.54822   1.48683    0.000
 4623.00    1.56558   1.48383    0.000
 4624.00    1.55261   1.48447    0.000
 4625.00    1.52329   1.48402    0.000
 4626.00    1.52589   1.47941    0.000
 4627.00    1.54341   1.47669    0.000
 4628.00    1.53611   1.47633    0.000
 4629.00    1.51880   1.47217    0.000
 4630.00    1.51165   1.46606    0.000
 4631.00    1.50799   1.46248    0.000
 4632.00    1.49364   1.45753    0.000
 4633.00    1.47618   1.44907    0.000
 4634.00    1.45801   1.44055    0.000
 4635.00    1.43966   1.43318    0.000
 4636.00    1.43980   1.42502    0.000
 4637.00    1.44350   1.41580    0.000
 4638.00    1.44469   1.40942    0.000
 4639.00    1.44551   1.40483    0.000
 4640.00    1.42449   1.39800    0.000
 4641.00    1.40108   1.39244    0.000
 4642.00    1.38403   1.38847    0.000
 4643.00    1.36744   1.38092    0.000
 4644.00    1.36492   1.37325    0.000
 4645.00    1.36294   1.36867    0.000
 4646.00    1.36078   1.36405    0.000
 4647.00    1.35888   1.36143    0.000
 4648.00    1.36649   1.36339    0.000
 4649.00    1.37520   1.36850    0.000
 4650.00    1.40201   1.37601    0.000
 4651.00    1.42501   1.38426    0.000
 4652.00    1.40902   1.39363    0.000
 4653.00    1.39714   1.40412    0.000
 4654.00    1.41533   1.41307    0.000
 4655.00    1.43049   1.42219    0.000
 4656.00    1.42867   1.43221    0.000
 4657.00    1.42858   1.44019    0.000
 4658.00    1.43614   1.44603    0.000
 4659.00    1.44717   1.44957    0.000
 4660.00    1.47090   1.44791    0.000
 4661.00    1.48611   1.44108    0.000
 4662.00    1.47516   1.43090    0.000
 4663.00    1.45956   1.41602    0.000
 4664.00    1.43178   1.39845    0.000
 4665.00    1.40752   1.38384    0.000
 4666.00    1.39113   1.37219    0.000
 4667.00    1.37808   1.36325    0.000
 4668.00    1.37151   1.36120    0.000
 4669.00    1.37327   1.36518    0.000
 4670.00    1.38914   1.37189    0.000
 4671.00    1.40723   1.38128    0.000
 4672.00    1.42861   1.39180    0.000
 4673.00    1.44156   1.40150    0.000
 4674.00    1.44353   1.40878    0.000
 4675.00    1.43414   1.41254    0.000
 4676.00    1.41170   1.41440    0.000
 4677.00    1.39797   1.41443    0.000
 4678.00    1.39305   1.41117    0.000
 4679.00    1.38913   1.40727    0.000
 4680.00    1.38611   1.40533    0.000
 4681.00    1.38799   1.40279    0.000
 4682.00    1.39374   1.40008    0.000
 4683.00    1.39885   1.40094    0.000
 4684.00    1.40353   1.40229    0.000
 4685.00    1.40232   1.40211    0.000
 4686.00    1.39754   1.40437    0.000
 4687.00    1.40360   1.40708    0.000
 4688.00    1.41540   1.40765    0.000
 4689.00    1.41939   1.41012    0.000
 4690.00    1.41979   1.41378    0.000
 4691.00    1.41197   1.41556    0.000
 4692.00    1.40088   1.41787    0.000
 4693.00    1.40387   1.42076    0.000
 4694.00    1.41161   1.42120    0.000
 4695.00    1.41337   1.41886    0.000
 4696.00    1.41343   1.41529    0.000
 4697.00    1.41504   1.41033    0.000
 4698.00    1.41700   1.40279    0.000
 4699.00    1.41728   1.39447    0.000
 4700.00    1.41724   1.38764    0.000
 4701.00    1.39748   1.38208    0.000
 4702.00    1.37485   1.37778    0.000
 4703.00    1.39395   1.37497    0.000
 4704.00    1.41746   1.37432    0.000
 4705.00    1.41061   1.37583    0.000
 4706.00    1.40167   1.37698    0.000
 4707.00    1.38497   1.37864    0.000
 4708.00    1.36800   1.38285    0.000
 4709.00    1.39367   1.38650    0.000
 4710.00    1.41883   1.39007    0.000
 4711.00    1.42533   1.39602    0.000
 4712.00    1.43178   1.40246    0.000
 4713.00    1.43749   1.41012    0.000
 4714.00    1.44212   1.41981    0.000
 4715.00    1.43613   1.43033    0.000
 4716.00    1.43278   1.44268    0.000
 4717.00    1.44807   1.45556    0.000
 4718.00    1.46635   1.46686    0.000
 4719.00    1.50087   1.47692    0.000
 4720.00    1.52784   1.48446    0.000
 4721.00    1.52189   1.48775    0.000
 4722.00    1.51208   1.48707    0.000
 4723.00    1.48841   1.48281    0.000
 4724.00    1.47240   1.47420    0.000
 4725.00    1.47951   1.46258    0.000
 4726.00    1.47497   1.45052    0.000
 4727.00    1.44062   1.43736    0.000
 4728.00    1.41836   1.42497    0.000
 4729.00    1.42273   1.41775    0.000
 4730.00    1.42641   1.41314    0.000
 4731.00    1.42877   1.41061    0.000
 4732.00    1.43270   1.41461    0.000
 4733.00    1.43926   1.42000    0.000
 4734.00    1.43832   1.42409    0.000
 4735.00    1.42641   1.43240    0.000
 4736.00    1.42517   1.44009    0.000
 4737.00    1.43766   1.44414    0.000
 4738.00    1.45357   1.45058    0.000
 4739.00    1.47337   1.45685    0.000
 4740.00    1.49488   1.46074    0.000
 4741.00    1.51812   1.46548    0.000
 4742.00    1.53565   1.47007    0.000
 4743.00    1.54813   1.47464    0.000
 4744.00    1.55330   1.47941    0.000
 4745.00    1.55278   1.48228    0.000
 4746.00    1.54728   1.48517    0.000
 4747.00    1.53840   1.48797    0.000
 4748.00    1.53115   1.48740    0.000
 4749.00    1.52488   1.48510    0.000
 4750.00    1.53177   1.48266    0.000
 4751.00    1.54553   1.47793    0.000
 4752.00    1.53196   1.47167    0.000
 4753.00    1.50600   1.46624    0.000
 4754.00    1.50379   1.46107    0.000
 4755.00    1.51083   1.45573    0.000
 4756.00    1.50206   1.45102    0.000
 4757.00    1.48806   1.44722    0.000
 4758.00    1.48627   1.44253    0.000
 4759.00    1.48788   1.43603    0.000
 4760.00    1.47075   1.42984    0.000
 4761.00    1.44934   1.42300    0.150
 4762.00    1.43371   1.41415    0.150
 4763.00    1.41914   1.40725    0.149
 4764.00    1.43873   1.40350    0.150
 4765.00    1.46313   1.40059    0.151
 4766.00    1.45151   1.40104    0.150
 4767.00    1.43623   1.40648    0.148
 4768.00    1.41638   1.41322    0.147
 4769.00    1.39624   1.42118    0.146
 4770.00    1.43304   1.43153    0.148
 4771.00    1.47150   1.44182    0.149
 4772.00    1.47709   1.45095    0.148
 4773.00    1.48240   1.45917    0.147
 4774.00    1.47989   1.46697    0.148
 4775.00    1.47944   1.47301    0.148
 4776.00    1.50883   1.47537    0.150
 4777.00    1.53400   1.47616    0.152
 4778.00    1.51945   1.47576    0.150
 4779.00    1.50253   1.47148    0.148
 4780.00    1.46933   1.46443    0.146
 4781.00    1.44179   1.45822    0.145
 4782.00    1.44424   1.45195    0.144
 4783.00    1.44069   1.44303    0.144
 4784.00    1.41156   1.43697    0.143
 4785.00    1.39142   1.43527    0.142
 4786.00    1.40289   1.43183    0.145
 4787.00    1.42048   1.43162    0.147
 4788.00    1.45616   1.43760    0.147
 4789.00    1.47333   1.44270    0.147
 4790.00    1.44388   1.44965    0.149
 4791.00    1.43096   1.46086    0.149
 4792.00    1.45387   1.47030    0.147
 4793.00    1.47343   1.47809    0.146
 4794.00    1.48669   1.48588    0.146
 4795.00    1.49923   1.49044    0.146
 4796.00    1.51057   1.49140    0.147
 4797.00    1.51254   1.49108    0.148
 4798.00    1.50099   1.48949    0.148
 4799.00    1.50425   1.48640    0.149
 4800.00    1.52628   1.48368    0.152
 4801.00    1.52815   1.48145    0.152
 4802.00    1.50750   1.47847    0.151
 4803.00    1.50183   1.47602    0.150
 4804.00    1.51089   1.47340    0.150
 4805.00    1.50767   1.46930    0.149
 4806.00    1.49377   1.46667    0.147
 4807.00    1.48223   1.46495    0.148
 4808.00    1.47249   1.46282    0.149
 4809.00    1.47997   1.46338    0.149
 4810.00    1.49904   1.46602    0.148
 4811.00    1.50718   1.46901    0.148
 4812.00    1.50889   1.47361    0.150
 4813.00    1.51152   1.47948    0.151
 4814.00    1.51463   1.48523    0.152
 4815.00    1.50252   1.49049    0.150
 4816.00    1.48363   1.49541    0.147
 4817.00    1.49000   1.49846    0.149
 4818.00    1.50603   1.49898    0.152
 4819.00    1.53555   1.49835    0.152
 4820.00    1.56947   1.49446    0.153
 4821.00    1.54671   1.48837    0.151
 4822.00    1.50853   1.48328    0.150
 4823.00    1.52310   1.47638    0.149
 4824.00    1.54947   1.46964    0.150
 4825.00    1.51984   1.46589    0.149
 4826.00    1.48022   1.46154    0.149
 4827.00    1.47726   1.45830    0.149
 4828.00    1.47928   1.45691    0.150
 4829.00    1.48508   1.45440    0.151
 4830.00    1.49125   1.45355    0.153
 4831.00    1.48585   1.45378    0.152
 4832.00    1.47975   1.45243    0.150
 4833.00    1.48131   1.45251    0.149
 4834.00    1.48300   1.45333    0.147
 4835.00    1.47083   1.45217    0.149
 4836.00    1.45882   1.45034    0.150
 4837.00    1.45101   1.44839    0.149
 4838.00    1.44498   1.44563    0.148
 4839.00    1.46312   1.44223    0.148
 4840.00    1.47998   1.43869    0.148
 4841.00    1.48528   1.43673    0.147
 4842.00    1.48740   1.43583    0.146
 4843.00    1.46848   1.43399    0.145
 4844.00    1.45564   1.43358    0.145
 4845.00    1.47414   1.43351    0.147
 4846.00    1.48899   1.43055    0.148
 4847.00    1.48859   1.42757    0.147
 4848.00    1.48447   1.42267    0.000
 4849.00    1.46752   1.41342    0.000
 4850.00    1.45947   1.40371    0.000
 4851.00    1.47727   1.39056    0.000
 4852.00    1.48008   1.37150    0.000
 4853.00    1.44581   1.35156    0.000
 4854.00    1.41503   1.32871    0.000
 4855.00    1.39168   1.29978    0.000
 4856.00    1.37567   1.27111    0.000
 4857.00    1.37324   1.24413    0.000
 4858.00    1.35710   1.21545    0.000
 4859.00    1.31878   1.19249    0.000
 4860.00    1.30413   1.17917    0.000
 4861.00    1.32309   1.17024    0.000
 4862.00    1.33666   1.17127    0.000
 4863.00    1.34350   1.18418    0.000
 4864.00    1.34032   1.19970    0.000
 4865.00    1.32611   1.21883    0.000
 4866.00    1.31933   1.24227    0.000
 4867.00    1.31977   1.26215    0.000
 4868.00    1.33186   1.27750    0.000
 4869.00    1.35392   1.29236    0.000
 4870.00    1.37098   1.30534    0.000
 4871.00    1.38427   1.31467    0.000
 4872.00    1.38218   1.32494    0.000
 4873.00    1.36989   1.33854    0.000
 4874.00    1.36624   1.35181    0.000
 4875.00    1.36761   1.36423    0.142
 4876.00    1.38111   1.37939    0.142
 4877.00    1.40075   1.39364    0.141
 4878.00    1.41895   1.40193    0.142
 4879.00    1.43651   1.40936    0.143
 4880.00    1.44276   1.41498    0.144
 4881.00    1.44474   1.41312    0.145
 4882.00    1.44440   1.40930    0.145
 4883.00    1.44331   1.40541    0.144
 4884.00    1.43246   1.39777    0.145
 4885.00    1.41902   1.38953    0.146
 4886.00    1.40584   1.38423    0.146
 4887.00    1.39273   1.38100    0.145
 4888.00    1.37186   1.37919    0.144
 4889.00    1.34965   1.38330    0.143
 4890.00    1.37370   1.39335    0.144
 4891.00    1.40383   1.40465    0.145
 4892.00    1.42511   1.42189    0.145
 4893.00    1.44557   1.44262    0.145
 4894.00    1.45561   1.45960    0.145
 4895.00    1.46507   1.47733    0.144
 4896.00    1.48662   1.49235    0.147
 4897.00    1.50836   1.49959    0.151
 4898.00    1.52014   1.50495    0.150
 4899.00    1.53083   1.50674    0.149
 4900.00    1.51579   1.50322    0.149
 4901.00    1.50273   1.50069    0.149
 4902.00    1.51530   1.49787    0.150
 4903.00    1.52487   1.49300    0.151
 4904.00    1.50835   1.48967    0.149
 4905.00    1.49286   1.48683    0.148
 4906.00    1.48398   1.48268    0.147
 4907.00    1.47587   1.47796    0.147
 4908.00    1.47160   1.47371    0.147
 4909.00    1.47192   1.46995    0.148
 4910.00    1.49090   1.46540    0.149
 4911.00    1.49956   1.46153    0.150
 4912.00    1.47343   1.45854    0.147
 4913.00    1.45761   1.45311    0.146
 4914.00    1.47117   1.44536    0.147
 4915.00    1.46992   1.43564    0.148
 4916.00    1.43267   1.42219    0.148
 4917.00    1.40480   1.40671    0.148
 4918.00    1.39663   1.39143    0.148
 4919.00    1.38272   1.37833    0.146
 4920.00    1.35832   1.37015    0.144
 4921.00    1.35384   1.36770    0.144
 4922.00    1.38112   1.37246    0.147
 4923.00    1.39686   1.38475    0.148
 4924.00    1.39643   1.40094    0.148
 4925.00    1.40806   1.41978    0.148
 4926.00    1.43451   1.44173    0.148
 4927.00    1.46128   1.46032    0.149
 4928.00    1.48839   1.47390    0.150
 4929.00    1.49649   1.48643    0.149
 4930.00    1.48639   1.49126    0.146
 4931.00    1.49682   1.48890    0.145
 4932.00    1.52457   1.48631    0.146
 4933.00    1.51143   1.47788    0.147
 4934.00    1.46789   1.46635    0.148
 4935.00    1.45000   1.45909    0.147
 4936.00    1.44886   1.45107    0.146
 4937.00    1.45124   1.44497    0.146
 4938.00    1.45564   1.44618    0.147
 4939.00    1.45407   1.44968    0.147
 4940.00    1.44953   1.45656    0.000
 4941.00    1.46551   1.46866    0.000
 4942.00    1.49033   1.48056    0.000
 4943.00    1.50905   1.49324    0.000
 4944.00    1.52552   1.50714    0.000
 4945.00    1.51956   1.51720    0.000
 4946.00    1.50659   1.52510    0.000
 4947.00    1.53426   1.53249    0.000
 4948.00    1.57253   1.53548    0.000
 4949.00    1.56473   1.53410    0.000
 4950.00    1.54712   1.53069    0.000
 4951.00    1.54055   1.52360    0.000
 4952.00    1.53583   1.51140    0.000
 4953.00    1.53213   1.49759    0.000
 4954.00    1.52856   1.48266    0.000
 4955.00    1.50067   1.46718    0.000
 4956.00    1.47063   1.45553    0.000
 4957.00    1.46841   1.44567    0.000
 4958.00    1.46765   1.44020    0.000
 4959.00    1.46720   1.44166    0.000
 4960.00    1.46668   1.44265    0.000
 4961.00    1.46050   1.44523    0.000
 4962.00    1.45546   1.45026    0.000
 4963.00    1.47495   1.45258    0.000
 4964.00    1.49054   1.45338    0.000
 4965.00    1.45821   1.45263    0.000
 4966.00    1.42911   1.45259    0.000
 4967.00    1.42694   1.45395    0.000
 4968.00    1.42739   1.45445    0.000
 4969.00    1.44418   1.45819    0.000
 4970.00    1.45800   1.46356    0.000
 4971.00    1.45734   1.46782    0.000
 4972.00    1.46115   1.47277    0.000
 4973.00    1.48274   1.47463    0.000
 4974.00    1.49779   1.47353    0.000
 4975.00    1.49122   1.46956    0.000
 4976.00    1.47898   1.46022    0.000
 4977.00    1.45087   1.44854    0.000
 4978.00    1.42671   1.43419    0.000
 4979.00    1.41201   1.41786    0.000
 4980.00    1.40099   1.40344    0.000
 4981.00    1.39756   1.39095    0.000
 4982.00    1.38886   1.38118    0.000
 4983.00    1.37068   1.37674    0.000
 4984.00    1.35937   1.37830    0.000
 4985.00    1.35886   1.38235    0.000
 4986.00    1.36865   1.38901    0.000
 4987.00    1.39264   1.40050    0.000
 4988.00    1.41242   1.41022    0.000
 4989.00    1.42709   1.41818    0.000
 4990.00    1.44368   1.42747    0.000
 4991.00    1.46232   1.43207    0.000
 4992.00    1.46104   1.43532    0.000
 4993.00    1.44094   1.43785    0.000
 4994.00    1.42804   1.43485    0.000
 4995.00    1.42114   1.43267    0.000
 4996.00    1.42413   1.42825    0.000
 4997.00    1.43437   1.41846    0.000
 4998.00    1.42657   1.41019    0.000
 4999.00    1.40715   1.39998    0.000
 5000.00    1.39609   1.38759    0.000
 5001.00    1.38973   1.37768    0.000
 5002.00    1.40620   1.36792    0.000
 5003.00    1.43385   1.35965    0.000
 5004.00    1.43172   1.35441    0.000
 5005.00    1.41698   1.35086    0.000
 5006.00    1.41553   1.34858    0.000
 5007.00    1.41889   1.34754    0.000
 5008.00    1.41555   1.34735    0.000
 5009.00    1.41014   1.34456    0.000
 5010.00    1.39576   1.34095    0.000
 5011.00    1.37908   1.33852    0.000
 5012.00    1.37074   1.33289    0.000
 5013.00    1.36414   1.32751    0.000
 5014.00    1.35269   1.32469    0.000
 5015.00    1.34046   1.32224    0.000
 5016.00    1.33004   1.32340    0.000
 5017.00    1.31983   1.32635    0.000
 5018.00    1.31254   1.33087    0.000
 5019.00    1.30549   1.33836    0.000
 5020.00    1.32719   1.34577    0.000
 5021.00    1.35030   1.35364    0.000
 5022.00    1.35022   1.36117    0.000
 5023.00    1.34972   1.36965    0.000
 5024.00    1.34529   1.37890    0.000
 5025.00    1.34176   1.38548    0.000
 5026.00    1.35613   1.39455    0.000
 5027.00    1.36971   1.40390    0.000
 5028.00    1.37398   1.41085    0.000
 5029.00    1.37836   1.42025    0.144
 5030.00    1.38354   1.42588    0.144
 5031.00    1.38920   1.42812    0.144
 5032.00    1.39769   1.43046    0.145
 5033.00    1.40581   1.42639    0.145
 5034.00    1.41213   1.41856    0.145
 5035.00    1.41574   1.40834    0.145
 5036.00    1.40881   1.39399    0.145
 5037.00    1.39802   1.38226    0.145
 5038.00    1.37473   1.37077    0.143
 5039.00    1.35193   1.36031    0.142
 5040.00    1.33050   1.35875    0.140
 5041.00    1.32081   1.36050    0.139
 5042.00    1.33874   1.36622    0.141
 5043.00    1.35232   1.37707    0.141
 5044.00    1.35707   1.38614    0.140
 5045.00    1.36170   1.39665    0.139
 5046.00    1.36615   1.40690    0.140
 5047.00    1.38049   1.41141    0.141
 5048.00    1.41017   1.41392    0.141
 5049.00    1.42333   1.41630    0.142
 5050.00    1.41403   1.41845    0.143
 5051.00    1.40446   1.42071    0.143
 5052.00    1.39458   1.42509    0.141
 5053.00    1.39527   1.43324    0.141
 5054.00    1.40711   1.44221    0.140
 5055.00    1.42504   1.45147    0.141
 5056.00    1.44863   1.46094    0.142
 5057.00    1.45928   1.46878    0.142
 5058.00    1.45929   1.47518    0.141
 5059.00    1.47143   1.47707    0.140
 5060.00    1.49232   1.47532    0.139
 5061.00    1.48674   1.47248    0.139
 5062.00    1.46437   1.46500    0.140
 5063.00    1.43801   1.45552    0.140
 5064.00    1.40942   1.44583    0.138
 5065.00    1.39815   1.43567    0.139
 5066.00    1.39524   1.42825    0.141
 5067.00    1.39030   1.42101    0.141
 5068.00    1.38450   1.41503    0.141
 5069.00    1.39007   1.41338    0.141
 5070.00    1.39970   1.41241    0.141
 5071.00    1.40579   1.41013    0.142
 5072.00    1.41082   1.40769    0.143
 5073.00    1.39000   1.40624    0.142
 5074.00    1.36273   1.40245    0.140
 5075.00    1.36417   1.39520    0.140
 5076.00    1.37143   1.38832    0.140
 5077.00    1.34227   1.38178    0.139
 5078.00    1.30733   1.37428    0.138
 5079.00    1.30542   1.36679    0.137
 5080.00    1.30743   1.36318    0.137
 5081.00    1.31549   1.36404    0.137
 5082.00    1.32403   1.36597    0.137
 5083.00    1.32354   1.37085    0.137
 5084.00    1.32264   1.38071    0.137
 5085.00    1.34017   1.39223    0.136
 5086.00    1.35761   1.40293    0.134
 5087.00    1.36032   1.41396    0.135
 5088.00    1.36331   1.42479    0.135
 5089.00    1.37159   1.43356    0.136
 5090.00    1.38173   1.43953    0.137
 5091.00    1.41258   1.44257    0.136
 5092.00    1.43739   1.44346    0.135
 5093.00    1.41521   1.44125    0.138
 5094.00    1.39685   1.43519    0.141
 5095.00    1.40107   1.42797    0.141
 5096.00    1.40117   1.42014    0.142
 5097.00    1.38209   1.41174    0.142
 5098.00    1.36248   1.40436    0.142
 5099.00    1.34084   1.39796    0.140
 5100.00    1.32637   1.39471    0.139
 5101.00    1.33468   1.39328    0.138
 5102.00    1.33883   1.39065    0.138
 5103.00    1.33174   1.39003    0.139
 5104.00    1.32923   1.38995    0.140
 5105.00    1.33732   1.38786    0.139
 5106.00    1.33737   1.38713    0.139
 5107.00    1.32135   1.38630    0.139
 5108.00    1.32405   1.38632    0.140
 5109.00    1.35938   1.39053    0.142
 5110.00    1.37488   1.39426    0.142
 5111.00    1.36011   1.40060    0.140
 5112.00    1.35205   1.41081    0.139
 5113.00    1.35296   1.41838    0.141
 5114.00    1.35481   1.42693    0.142
 5115.00    1.35776   1.43483    0.143
 5116.00    1.38044   1.43764    0.144
 5117.00    1.42366   1.43895    0.145
 5118.00    1.43096   1.43561    0.145
 5119.00    1.40530   1.42745    0.145
 5120.00    1.39008   1.41798    0.144
 5121.00    1.38329   1.40518    0.143
 5122.00    1.37385   1.39170    0.141
 5123.00    1.36252   1.37905    0.139
 5124.00    1.33459   1.36735    0.139
 5125.00    1.29629   1.35992    0.139
 5126.00    1.28151   1.35541    0.139
 5127.00    1.27957   1.35347    0.137
 5128.00    1.28169   1.35569    0.137
 5129.00    1.28572   1.36022    0.136
 5130.00    1.31321   1.36644    0.138
 5131.00    1.35029   1.37312    0.140
 5132.00    1.36809   1.37914    0.139
 5133.00    1.37914   1.38443    0.138
 5134.00    1.39016   1.38656    0.138
 5135.00    1.40116   1.38844    0.140
 5136.00    1.39533   1.38770    0.140
 5137.00    1.38540   1.38192    0.140
 5138.00    1.38587   1.37874    0.139
 5139.00    1.38839   1.37380    0.137
 5140.00    1.37351   1.36711    0.137
 5141.00    1.35593   1.36401    0.137
 5142.00    1.33084   1.35810    0.136
 5143.00    1.30489   1.35399    0.135
 5144.00    1.29063   1.35431    0.135
 5145.00    1.27726   1.35060    0.135
 5146.00    1.31068   1.34787    0.137
 5147.00    1.34602   1.34879    0.139
 5148.00    1.32839   1.34818    0.138
 5149.00    1.31065   1.34903    0.136
 5150.00    1.30619   1.35155    0.136
 5151.00    1.30238   1.35442    0.136
 5152.00    1.30951   1.36066    0.135
 5153.00    1.31607   1.36817    0.135
 5154.00    1.31658   1.37517    0.135
 5155.00    1.31943   1.38447    0.136
 5156.00    1.33982   1.39302    0.137
 5157.00    1.35789   1.39771    0.139
 5158.00    1.36267   1.40034    0.138
 5159.00    1.36601   1.39701    0.138
 5160.00    1.36282   1.38715    0.138
 5161.00    1.35574   1.37190    0.138
 5162.00    1.33413   1.34795    0.138
 5163.00    1.30732   1.32036    0.137
 5164.00    1.26426   1.29124    0.137
 5165.00    1.21550   1.25911    0.136
 5166.00    1.15161   1.22843    0.135
 5167.00    1.10134   1.20076    0.135
 5168.00    1.08201   1.17958    0.136
 5169.00    1.07205   1.16750    0.137
 5170.00    1.08056   1.16197    0.136
 5171.00    1.08798   1.16296    0.136
 5172.00    1.09354   1.17108    0.137
 5173.00    1.10147   1.18586    0.137
 5174.00    1.11296   1.20395    0.136
 5175.00    1.13905   1.22066    0.136
 5176.00    1.18443   1.23537    0.136
 5177.00    1.21224   1.24789    0.136
 5178.00    1.21963   1.25417    0.136
 5179.00    1.21700   1.25455    0.136
 5180.00    1.20410   1.25259    0.135
 5181.00    1.17496   1.24838    0.134
 5182.00    1.13113   1.24493    0.134
 5183.00    1.11701   1.24330    0.133
 5184.00    1.12659   1.24689    0.133
 5185.00    1.14969   1.25839    0.133
 5186.00    1.18228   1.26968    0.134
 5187.00    1.22385   1.28228    0.135
 5188.00    1.27093   1.29866    0.137
 5189.00    1.29103   1.31242    0.137
 5190.00    1.29662   1.32334    0.000
 5191.00    1.29591   1.33098    0.000
 5192.00    1.29227   1.33641    0.000
 5193.00    1.27898   1.34387    0.000
 5194.00    1.26181   1.35101    0.000
 5195.00    1.28531   1.35576    0.000
 5196.00    1.32275   1.36239    0.000
 5197.00    1.33395   1.36945    0.000
 5198.00    1.33757   1.37325    0.000
 5199.00    1.35458   1.37419    0.000
 5200.00    1.37479   1.37057    0.000
 5201.00    1.38266   1.36375    0.000
 5202.00    1.38816   1.35425    0.000
 5203.00    1.36034   1.34079    0.000
 5204.00    1.32754   1.32746    0.000
 5205.00    1.30154   1.31564    0.000
 5206.00    1.27629   1.30738    0.000
 5207.00    1.25529   1.30540    0.000
 5208.00    1.23460   1.30649    0.000
 5209.00    1.26197   1.31380    0.000
 5210.00    1.29114   1.32681    0.000
 5211.00    1.29316   1.34089    0.134
 5212.00    1.29599   1.35773    0.134
 5213.00    1.33325   1.37446    0.135
 5214.00    1.36954   1.38942    0.135
 5215.00    1.39007   1.40225    0.136
 5216.00    1.40836   1.41250    0.137
 5217.00    1.40394   1.42042    0.137
 5218.00    1.39628   1.42465    0.137
 5219.00    1.36504   1.42538    0.137
 5220.00    1.34373   1.42253    0.138
 5221.00    1.37768   1.41641    0.137
 5222.00    1.40377   1.40710    0.137
 5223.00    1.39487   1.39726    0.138
 5224.00    1.37953   1.38728    0.138
 5225.00    1.34067   1.37773    0.138
 5226.00    1.31249   1.37305    0.138
 5227.00    1.31701   1.37072    0.138
 5228.00    1.32753   1.37312    0.138
 5229.00    1.35368   1.38083    0.139
 5230.00    1.36912   1.38812    0.140
 5231.00    1.36060   1.39979    0.141
 5232.00    1.36829   1.41235    0.141
 5233.00    1.40739   1.42237    0.142
 5234.00    1.42954   1.43507    0.141
 5235.00    1.42303   1.44628    0.139
 5236.00    1.42009   1.45686    0.137
 5237.00    1.42242   1.46763    0.137
 5238.00    1.42910   1.47532    0.138
 5239.00    1.44144   1.48239    0.138
 5240.00    1.46198   1.48709    0.139
 5241.00    1.49192   1.48759    0.140
 5242.00    1.49507   1.48519    0.140
 5243.00    1.47112   1.48099    0.140
 5244.00    1.45582   1.47484    0.140
 5245.00    1.44823   1.46548    0.140
 5246.00    1.44779   1.45537    0.140
 5247.00    1.45295   1.44577    0.141
 5248.00    1.44190   1.43818    0.141
 5249.00    1.41963   1.43266    0.139
 5250.00    1.41100   1.42708    0.138
 5251.00    1.41063   1.42713    0.138
 5252.00    1.40859   1.43117    0.137
 5253.00    1.40565   1.43473    0.137
 5254.00    1.40883   1.44028    0.138
 5255.00    1.41482   1.44444    0.139
 5256.00    1.43166   1.44765    0.138
 5257.00    1.45279   1.44811    0.135
 5258.00    1.44957   1.44137    0.136
 5259.00    1.43813   1.43036    0.137
 5260.00    1.42519   1.41430    0.138
 5261.00    1.41183   1.39313    0.138
 5262.00    1.37203   1.37053    0.138
 5263.00    1.32607   1.34629    0.138
 5264.00    1.27464   1.32164    0.138
 5265.00    1.22218   1.30193    0.137
 5266.00    1.20672   1.28820    0.136
 5267.00    1.19662   1.28023    0.135
 5268.00    1.20240   1.27826    0.136
 5269.00    1.20985   1.28131    0.137
 5270.00    1.24385   1.29112    0.137
 5271.00    1.27965   1.30842    0.138
 5272.00    1.30227   1.32853    0.140
 5273.00    1.32445   1.34845    0.142
 5274.00    1.36547   1.37100    0.139
 5275.00    1.40551   1.39287    0.136
 5276.00    1.41324   1.41181    0.137
 5277.00    1.42172   1.42943    0.138
 5278.00    1.44160   1.44192    0.139
 5279.00    1.46066   1.45145    0.140
 5280.00    1.47175   1.46085    0.138
 5281.00    1.48007   1.46798    0.137
 5282.00    1.46895   1.47484    0.137
 5283.00    1.46183   1.48263    0.136
 5284.00    1.47637   1.49131    0.136
 5285.00    1.49177   1.50274    0.135
 5286.00    1.51093   1.51405    0.138
 5287.00    1.52455   1.52331    0.139
 5288.00    1.51833   1.53128    0.138
 5289.00    1.51460   1.53684    0.137
 5290.00    1.51834   1.53865    0.138
 5291.00    1.52288   1.53524    0.138
 5292.00    1.52946   1.52750    0.139
 5293.00    1.52815   1.51696    0.140
 5294.00    1.50948   1.50557    0.140
 5295.00    1.49440   1.49318    0.139
 5296.00    1.48616   1.48033    0.140
 5297.00    1.47571   1.47129    0.139
 5298.00    1.46159   1.46682    0.139
 5299.00    1.45939   1.46762    0.139
 5300.00    1.47459   1.47273    0.140
 5301.00    1.48149   1.48037    0.140
 5302.00    1.47771   1.49234    0.139
 5303.00    1.48007   1.50685    0.138
 5304.00    1.48937   1.52129    0.135
 5305.00    1.50689   1.53434    0.135
 5306.00    1.53263   1.54528    0.137
 5307.00    1.55322   1.55428    0.138
 5308.00    1.56929   1.56092    0.138
 5309.00    1.57262   1.56497    0.137
 5310.00    1.56607   1.56597    0.136
 5311.00    1.55829   1.56431    0.135
 5312.00    1.54966   1.56140    0.135
 5313.00    1.53985   1.55711    0.134
 5314.00    1.52933   1.55116    0.134
 5315.00    1.53443   1.54465    0.134
 5316.00    1.54768   1.53709    0.136
 5317.00    1.54605   1.52864    0.135
 5318.00    1.53771   1.51993    0.133
 5319.00    1.52284   1.50902    0.133
 5320.00    1.50543   1.49730    0.133
 5321.00    1.48274   1.48422    0.132
 5322.00    1.45831   1.46833    0.131
 5323.00    1.46016   1.45183    0.131
 5324.00    1.46931   1.43621    0.131
 5325.00    1.45130   1.42282    0.131
 5326.00    1.42709   1.41139    0.132
 5327.00    1.39754   1.40357    0.132
 5328.00    1.36703   1.40067    0.132
 5329.00    1.37188   1.40553    0.132
 5330.00    1.38170   1.41568    0.132
 5331.00    1.40622   1.42714    0.132
 5332.00    1.43222   1.44122    0.133
 5333.00    1.44727   1.45537    0.131
 5334.00    1.46162   1.46874    0.130
 5335.00    1.48663   1.47875    0.132
 5336.00    1.51189   1.48443    0.133
 5337.00    1.50869   1.48788    0.132
 5338.00    1.50514   1.48784    0.132
 5339.00    1.49157   1.48646    0.132
 5340.00    1.47837   1.48412    0.132
 5341.00    1.47057   1.48181    0.132
 5342.00    1.46392   1.48247    0.132
 5343.00    1.46803   1.48215    0.131
 5344.00    1.47368   1.48303    0.131
 5345.00    1.48980   1.48661    0.134
 5346.00    1.50177   1.49039    0.136
 5347.00    1.49182   1.49718    0.135
 5348.00    1.48167   1.50455    0.133
 5349.00    1.47066   1.51320    0.133
 5350.00    1.46693   1.52524    0.134
 5351.00    1.48872   1.53750    0.135
 5352.00    1.51534   1.55061    0.136
 5353.00    1.55617   1.56326    0.136
 5354.00    1.58636   1.57444    0.136
 5355.00    1.58979   1.58435    0.136
 5356.00    1.58848   1.59035    0.135
 5357.00    1.57689   1.59291    0.133
 5358.00    1.56941   1.59216    0.132
 5359.00    1.56963   1.58747    0.134
 5360.00    1.57240   1.57949    0.135
 5361.00    1.57936   1.56918    0.135
 5362.00    1.56773   1.55642    0.134
 5363.00    1.52938   1.54269    0.132
 5364.00    1.50949   1.52855    0.131
 5365.00    1.51296   1.51339    0.132
 5366.00    1.50011   1.50056    0.132
 5367.00    1.46909   1.48926    0.131
 5368.00    1.44977   1.48055   -2.000
 5369.00    1.44195   1.47502   -2.000
 5370.00    1.42954   1.47278   -2.000
 5371.00    1.41315   1.47586   -2.000
 5372.00    1.41434   1.48267   -2.000
 5373.00    1.42896   1.49331   -2.000
 5374.00    1.44690   1.50437   -2.000
 5375.00    1.46708   1.51539   -2.000
 5376.00    1.48648   1.52633   -2.000
 5377.00    1.50543   1.53514   -2.000
 5378.00    1.52019   1.54220   -2.000
 5379.00    1.53281   1.54624   -2.000
 5380.00    1.52657   1.54752   -2.000
 5381.00    1.51194   1.54671   -2.000
 5382.00    1.51600   1.54486   -2.000
 5383.00    1.52718   1.54176    0.130
 5384.00    1.51925   1.53753    0.129
 5385.00    1.50512   1.53265    0.129
 5386.00    1.50068   1.52609    0.128
 5387.00    1.49887   1.51858    0.128
 5388.00    1.48765   1.51039    0.127
 5389.00    1.47432   1.50087    0.127
 5390.00    1.46312   1.49096    0.126
 5391.00    1.45231   1.48134    0.126
 5392.00    1.44753   1.47145    0.127
 5393.00    1.44357   1.46337    0.128
 5394.00    1.43479   1.45605    0.127
 5395.00    1.42555   1.44947    0.126
 5396.00    1.42130   1.44549    0.127
 5397.00    1.41735   1.44179    0.128
 5398.00    1.42331   1.43968    0.129
 5399.00    1.42940   1.43780    0.129
 5400.00    1.41414   1.43460    0.129
 5401.00    1.40021   1.43103    0.128
 5402.00    1.42033   1.42659    0.128
 5403.00    1.43694   1.42130    0.128
 5404.00    1.40580   1.41618    0.128
 5405.00    1.37576   1.41264    0.128
 5406.00    1.35565   1.41182    0.129
 5407.00    1.34017   1.41432    0.129
 5408.00    1.35526   1.41926    0.129
 5409.00    1.37291   1.42740    0.129
 5410.00    1.40374   1.43858    0.128
 5411.00    1.42969   1.45309    0.127
 5412.00    1.43540   1.46881    0.127
 5413.00    1.44235   1.48324    0.127
 5414.00    1.45357   1.49696    0.128
 5415.00    1.46651   1.50890    0.128
 5416.00    1.48444   1.51916    0.127
 5417.00    1.49784   1.52686    0.126
 5418.00    1.50005   1.53083    0.125
 5419.00    1.50561   1.53238    0.126
 5420.00    1.51829   1.53275    0.126
 5421.00    1.52193   1.53132    0.127
 5422.00    1.50886   1.52804    0.127
 5423.00    1.49854   1.52396    0.126
 5424.00    1.49264   1.51826    0.125
 5425.00    1.48752   1.51295    0.125
 5426.00    1.48350   1.50745    0.125
 5427.00    1.47523   1.49905    0.125
 5428.00    1.46165   1.49107    0.125
 5429.00    1.44682   1.48290    0.124
 5430.00    1.43059   1.47597    0.123
 5431.00    1.42133   1.47338    0.122
 5432.00    1.41884   1.47072    0.123
 5433.00    1.42035   1.47118    0.123
 5434.00    1.42527   1.47540    0.123
 5435.00    1.43603   1.48268    0.123
 5436.00    1.45117   1.49480    0.123
 5437.00    1.47056   1.50670    0.124
 5438.00    1.49277   1.51833    0.124
 5439.00    1.50907   1.52812    0.124
 5440.00    1.52196   1.53481    0.123
 5441.00    1.52961   1.53904    0.123
 5442.00    1.53461   1.53851    0.124
 5443.00    1.52237   1.53493    0.124
 5444.00    1.50258   1.52762    0.124
 5445.00    1.49132   1.51842    0.124
 5446.00    1.48325   1.51012    0.124
 5447.00    1.48087   1.50198    0.125
 5448.00    1.48029   1.49629    0.126
 5449.00    1.47541   1.49137    0.126
 5450.00    1.46940   1.48702    0.126
 5451.00    1.48700   1.48387    0.126
 5452.00    1.50974   1.48144    0.126
 5453.00    1.49332   1.47953    0.126
 5454.00    1.47015   1.47864    0.126
 5455.00    1.45786   1.47798    0.126
 5456.00    1.44699   1.47824    0.126
 5457.00    1.46234   1.48080    0.127
 5458.00    1.48011   1.48273    0.129
 5459.00    1.48613   1.48493    0.128
 5460.00    1.49149   1.48666    0.127
 5461.00    1.48812   1.48798    0.125
 5462.00    1.48458   1.49079    0.124
 5463.00    1.48389   1.49220    0.123
 5464.00    1.48322   1.49322    0.122
 5465.00    1.48300   1.49421    0.122
 5466.00    1.48310   1.49359    0.122
 5467.00    1.48716   1.49287    0.122
 5468.00    1.49024   1.49070    0.122
 5469.00    1.48476   1.48689    0.121
 5470.00    1.48024   1.48228    0.121
 5471.00    1.48188   1.47584    0.121
 5472.00    1.48018   1.46942    0.122
 5473.00    1.46168   1.46282    0.120
 5474.00    1.44495   1.45522    0.119
 5475.00    1.43543   1.44985    0.121
 5476.00    1.42798   1.44618    0.122
 5477.00    1.42751   1.44507    0.122
 5478.00    1.42731   1.44698   -2.000
 5479.00    1.42790   1.44936   -2.000
 5480.00    1.43159   1.45389   -2.000
 5481.00    1.44278   1.45870   -2.000
 5482.00    1.45575   1.46514   -2.000
 5483.00    1.47241   1.47322   -2.000
 5484.00    1.47025   1.48023   -2.000
 5485.00    1.43381   1.48571   -2.000
 5486.00    1.40281   1.48930   -2.000
 5487.00    1.38045   1.49299   -2.000
 5488.00    1.38187   1.49618   -2.000
 5489.00    1.41649   1.49932   -2.000
 5490.00    1.46037   1.50097   -2.000
 5491.00    1.51562   1.50165   -2.000
 5492.00    1.54739   1.50256   -2.000
 5493.00    1.55372   1.50270   -2.000
 5494.00    1.55626   1.50303   -2.000
 5495.00    1.55518   1.50239   -2.000
 5496.00    1.54126   1.50158   -2.000
 5497.00    1.51651   1.50058   -2.000
 5498.00    1.49853   1.49852   -2.000
 5499.00    1.48557   1.49578   -2.000
 5500.00    1.48479   1.49285   -2.000
 5501.00    1.49195   1.48950   -2.000
 5502.00    1.48624   1.48550    0.123
 5503.00    1.47319   1.48241    0.121
 5504.00    1.46772   1.47904    0.122
 5505.00    1.46601   1.47568    0.123
 5506.00    1.46120   1.47241    0.123
 5507.00    1.45505   1.46953    0.122
 5508.00    1.43956   1.46850    0.120
 5509.00    1.42065   1.46700    0.118
 5510.00    1.41482   1.46541    0.118
 5511.00    1.41307   1.46541    0.119
 5512.00    1.41720   1.46629    0.119
 5513.00    1.42286   1.47005    0.118
 5514.00    1.42521   1.47523    0.119
 5515.00    1.42685   1.48120    0.120
 5516.00    1.44299   1.48939    0.120
 5517.00    1.46156   1.49712    0.120
 5518.00    1.46150   1.50500    0.120
 5519.00    1.45908   1.51199    0.120
 5520.00    1.47226   1.51637    0.119
 5521.00    1.48681   1.51866    0.118
 5522.00    1.48657   1.51884    0.118
 5523.00    1.48555   1.51720    0.118
 5524.00    1.48332   1.51385    0.119
 5525.00    1.48102   1.50883    0.119
 5526.00    1.47635   1.50341    0.118
 5527.00    1.47147   1.49955    0.118
 5528.00    1.46238   1.49661    0.119
 5529.00    1.45467   1.49568    0.120
 5530.00    1.46382   1.49619    0.120
 5531.00    1.47268   1.49719    0.120
 5532.00    1.47907   1.49945    0.118
 5533.00    1.48504   1.50175    0.117
 5534.00    1.48837   1.50585    0.119
 5535.00    1.49148   1.51021    0.120
 5536.00    1.49352   1.51399    0.120
 5537.00    1.49554   1.51832    0.120
 5538.00    1.49748   1.52206    0.120
 5539.00    1.49819   1.52618    0.137
 5540.00    1.49485   1.52966    0.324
 5541.00    1.49580   1.53288   -1.000
 5542.00    1.50867   1.53608   -1.000
 5543.00    1.52181   1.53849   -1.000
 5544.00    1.53557   1.54109   -1.000
 5545.00    1.54503   1.54412    0.953
 5546.00    1.54563   1.54691    0.235
 5547.00    1.54825   1.54922    0.152
 5548.00    1.55450   1.55134    0.138
 5549.00    1.55318   1.55288    0.129
 5550.00    1.53999   1.55346    0.125
 5551.00    1.53116   1.55268    0.122
 5552.00    1.52834   1.55096    0.120
 5553.00    1.52611   1.54871    0.120
 5554.00    1.52461   1.54571    0.120
 5555.00    1.52453   1.54192    0.120
 5556.00    1.52596   1.53799    0.119
 5557.00    1.52275   1.53406    0.119
 5558.00    1.51516   1.52941    0.121
 5559.00    1.50341   1.52502    0.119
 5560.00    1.48822   1.52034    0.116
 5561.00    1.48218   1.51562    0.115
 5562.00    1.48282   1.51111    0.116
 5563.00    1.48105   1.50613    0.116
 5564.00    1.47773   1.50235    0.116
 5565.00    1.47288   1.49870    0.116
 5566.00    1.46717   1.49557    0.117
 5567.00    1.46664   1.49379    0.116
 5568.00    1.46864   1.49272    0.115
 5569.00    1.46803   1.49348    0.114
 5570.00    1.46630   1.49422    0.115
 5571.00    1.46229   1.49596    0.115
 5572.00    1.45744   1.49902    0.115
 5573.00    1.45927   1.50199    0.115
 5574.00    1.46315   1.50547    0.116
 5575.00    1.47107   1.50890    0.117
 5576.00    1.48003   1.51152    0.118
 5577.00    1.48973   1.51291    0.118
 5578.00    1.49958   1.51280    0.117
 5579.00    1.50765   1.51102    0.117
 5580.00    1.51543   1.50704    0.116
 5581.00    1.49641   1.50087    0.117
 5582.00    1.47411   1.49255    0.118
 5583.00    1.46840   1.48308    0.119
 5584.00    1.46408   1.47221    0.119
 5585.00    1.44811   1.46094    0.119
 5586.00    1.43157   1.45116    0.119
 5587.00    1.41293   1.44246    0.119
 5588.00    1.39456   1.43737    0.118
 5589.00    1.39399   1.43524    0.119
 5590.00    1.39338   1.43514    0.119
 5591.00    1.39209   1.43764    0.120
 5592.00    1.39169   1.44091    0.120
 5593.00    1.40161   1.44590    0.121
 5594.00    1.41088   1.45137    0.121
 5595.00    1.41490   1.45595    0.121
 5596.00    1.42001   1.45961    0.121
 5597.00    1.43167   1.46236    0.120
 5598.00    1.44130   1.46425    0.119
 5599.00    1.44125   1.46632    0.120
 5600.00    1.43784   1.46973    0.120
 5601.00    1.42144   1.47416    0.119
 5602.00    1.41353   1.48105    0.118
 5603.00    1.43307   1.48875    0.117
 5604.00    1.45237   1.49856    0.117
 5605.00    1.47098   1.50866    0.117
 5606.00    1.48572   1.51743    0.117
 5607.00    1.49138   1.52506    0.115
 5608.00    1.49781   1.52968    0.114
 5609.00    1.50579   1.53230    0.113
 5610.00    1.51065   1.53178    0.113
 5611.00    1.50997   1.52811    0.113
 5612.00    1.50263   1.52184    0.113
 5613.00    1.48501   1.51272    0.113
 5614.00    1.46754   1.50405    0.113
 5615.00    1.45029   1.49585    0.113
 5616.00    1.43877   1.48895    0.114
 5617.00    1.43411   1.48414    0.113
 5618.00    1.42812   1.48015    0.114
 5619.00    1.42072   1.47801    0.114
 5620.00    1.42106   1.47670    0.114
 5621.00    1.42860   1.47688    0.112
 5622.00    1.42859   1.47785    0.112
 5623.00    1.42239   1.47927    0.114
 5624.00    1.42213   1.48195    0.115
 5625.00    1.42614   1.48534    0.115
 5626.00    1.43303   1.49006    0.115
 5627.00    1.44173   1.49546    0.115
 5628.00    1.45424   1.50055    0.116
 5629.00    1.46887   1.50530    0.117
 5630.00    1.47744   1.50900    0.117
 5631.00    1.48311   1.51168    0.118
 5632.00    1.48980   1.51243    0.117
 5633.00    1.49691   1.51151    0.116
 5634.00    1.48422   1.50903    0.115
 5635.00    1.46451   1.50530    0.116
 5636.00    1.44783   1.50131    0.113
 5637.00    1.43207   1.49724    0.111
 5638.00    1.43735   1.49396    0.110
 5639.00    1.44787   1.49095    0.109
 5640.00    1.44505   1.48955    0.108
 5641.00    1.43954   1.48912    0.108
 5642.00    1.45140   1.48979    0.108
 5643.00    1.46602   1.49209    0.108
 5644.00    1.47552   1.49462    0.108
 5645.00    1.48442   1.49796    0.107
 5646.00    1.48209   1.50094    0.107
 5647.00    1.47887   1.50379    0.108
 5648.00    1.48482   1.50608    0.107
 5649.00    1.49118   1.50732    0.106
 5650.00    1.49097   1.50772    0.109
 5651.00    1.49062   1.50661    0.112
 5652.00    1.48646   1.50375    0.112
 5653.00    1.48244   1.49927    0.112
 5654.00    1.48112   1.49409    0.113
 5655.00    1.47813   1.48796    0.113
 5656.00    1.45666   1.48114    0.113
 5657.00    1.43553   1.47554    0.113
 5658.00    1.41710   1.47120    0.112
 5659.00    1.40227   1.46820    0.112
 5660.00    1.40854   1.46724    0.113
 5661.00    1.41617   1.46802    0.114
 5662.00    1.43011   1.47070    0.114
 5663.00    1.44253   1.47449    0.115
 5664.00    1.44919   1.47984    0.115
 5665.00    1.45261   1.48545    0.114
 5666.00    1.44577   1.49136    0.114
 5667.00    1.43993   1.49764    0.114
 5668.00    1.43680   1.50402    0.113
 5669.00    1.43710   1.51065    0.112
 5670.00    1.44535   1.51727    0.113
 5671.00    1.45888   1.52399    0.114
 5672.00    1.48296   1.52983    0.115
 5673.00    1.49934   1.53453    0.116
 5674.00    1.50230   1.53831    0.115
 5675.00    1.50761   1.54072    0.115
 5676.00    1.51652   1.54140    0.116
 5677.00    1.51797   1.54051    0.117
 5678.00    1.50945   1.53796    0.116
 5679.00    1.50116   1.53430    0.115
 5680.00    1.49314   1.52926    0.115
 5681.00    1.48055   1.52432    0.115
 5682.00    1.46321   1.51963    0.114
 5683.00    1.45564   1.51567    0.113
 5684.00    1.45702   1.51282    0.112
 5685.00    1.46294   1.51081    0.111
 5686.00    1.47252   1.51053    0.109
 5687.00    1.47704   1.51144    0.109
 5688.00    1.47795   1.51442    0.109
 5689.00    1.47550   1.51769    0.109
 5690.00    1.47094   1.52200    0.109
 5691.00    1.47118   1.52563    0.110
 5692.00    1.47404   1.52824    0.111
 5693.00    1.48481   1.52960    0.111
 5694.00    1.49933   1.52917    0.112
 5695.00    1.50370   1.52756    0.113
 5696.00    1.50392   1.52343    0.114
 5697.00    1.50087   1.51841    0.115
 5698.00    1.49668   1.51199    0.116
 5699.00    1.48107   1.50445    0.115
 5700.00    1.46211   1.49697    0.113
 5701.00    1.45119   1.48939    0.114
 5702.00    1.44222   1.48230    0.115
 5703.00    1.43957   1.47541    0.114
 5704.00    1.43817   1.46884    0.113
 5705.00    1.42403   1.46302    0.113
 5706.00    1.40793   1.45812    0.113
 5707.00    1.39699   1.45455    0.112
 5708.00    1.38663   1.45374    0.112
 5709.00    1.39682   1.45478    0.112
 5710.00    1.40857   1.45840    0.113
 5711.00    1.41992   1.46539    0.112
 5712.00    1.43125   1.47393    0.112
 5713.00    1.44213   1.48460    0.112
 5714.00    1.45334   1.49644    0.111
 5715.00    1.47795   1.50865    0.111
 5716.00    1.50157   1.52064    0.111
 5717.00    1.50805   1.53213    0.111
 5718.00    1.51433   1.54235    0.111
 5719.00    1.51854   1.55103    0.110
 5720.00    1.52426   1.55823    0.109
 5721.00    1.54126   1.56354    0.110
 5722.00    1.55710   1.56667    0.110
 5723.00    1.56628   1.56828    0.110
 5724.00    1.57226   1.56840    0.110
 5725.00    1.56376   1.56694    0.111
 5726.00    1.55498   1.56548    0.111
 5727.00    1.54515   1.56381    0.110
 5728.00    1.53871   1.56217    0.110
 5729.00    1.54277   1.56060    0.110
 5730.00    1.54687   1.55961    0.111
 5731.00    1.55105   1.55962    0.111
 5732.00    1.55195   1.55989    0.112
 5733.00    1.54544   1.56102    0.112
 5734.00    1.54027   1.56185    0.111
 5735.00    1.53774   1.56279    0.110
 5736.00    1.53573   1.56376    0.110
 5737.00    1.53462   1.56425    0.112
 5738.00    1.53621   1.56455    0.112
 5739.00    1.54185   1.56457    0.113
 5740.00    1.54797   1.56479    0.000
 5741.00    1.55472   1.56442    0.000
 5742.00    1.55662   1.56424    0.000
 5743.00    1.55290   1.56374    0.000
 5744.00    1.55757   1.56301    0.000
 5745.00    1.57085   1.56167    0.000
 5746.00    1.57310   1.55946    0.000
 5747.00    1.56539   1.55755    0.000
 5748.00    1.56023   1.55523    0.000
 5749.00    1.55710   1.55295    0.000
 5750.00    1.55312   1.55017    0.000
 5751.00    1.54854   1.54747    0.000
 5752.00    1.54270   1.54512    0.000
 5753.00    1.53608   1.54377    0.000
 5754.00    1.53225   1.54329    0.000
 5755.00    1.52990   1.54305    0.000
 5756.00    1.52932   1.54358    0.000
 5757.00    1.52956   1.54374    0.000
 5758.00    1.53182   1.54386    0.000
 5759.00    1.53490   1.54372    0.000
 5760.00    1.53776   1.54410    0.000
 5761.00    1.54055   1.54506    0.000
 5762.00    1.54376   1.54793    0.000
 5763.00    1.54709   1.55125    0.000
 5764.00    1.55084   1.55513    0.000
 5765.00    1.55470   1.55918    0.000
 5766.00    1.56440   1.56298    0.000
 5767.00    1.57523   1.56627    0.000
 5768.00    1.58588   1.56863    0.000
 5769.00    1.59650   1.57011    0.000
 5770.00    1.58869   1.56977    0.000
 5771.00    1.57887   1.56881    0.000
 5772.00    1.57612   1.56597    0.000
 5773.00    1.57388   1.56179    0.000
 5774.00    1.58370   1.55660    0.000
 5775.00    1.59398   1.55001    0.000
 5776.00    1.57849   1.54241    0.000
 5777.00    1.56281   1.53355    0.000
 5778.00    1.54391   1.52393    0.000
 5779.00    1.52505   1.51344    0.000
 5780.00    1.50686   1.50417    0.000
 5781.00    1.48886   1.49607    0.000
 5782.00    1.47282   1.48989    0.000
 5783.00    1.45836   1.48575    0.000
 5784.00    1.45529   1.48464    0.000
 5785.00    1.45484   1.48669    0.000
 5786.00    1.46896   1.49061    0.000
 5787.00    1.48464   1.49717    0.000
 5788.00    1.50721   1.50448    0.000
 5789.00    1.52641   1.51258    0.000
 5790.00    1.53332   1.52182    0.000
 5791.00    1.53623   1.53051   -2.000
 5792.00    1.52693   1.53901   -2.000
 5793.00    1.51934   1.54693   -2.000
 5794.00    1.51617   1.55396   -2.000
 5795.00    1.51859   1.55984   -2.000
 5796.00    1.53351   1.56468   -2.000
 5797.00    1.54836   1.56968   -2.000
 5798.00    1.56311   1.57373   -2.000
 5799.00    1.57432   1.57722   -2.000
 5800.00    1.57959   1.57996   -2.000
 5801.00    1.58441   1.58152   -2.000
 5802.00    1.58855   1.58188   -2.000
 5803.00    1.59408   1.58178   -2.000
 5804.00    1.60143   1.58110   -2.000
 5805.00    1.60486   1.58024   -2.000
 5806.00    1.60379   1.57952   -2.000
 5807.00    1.59768   1.57866   -2.000
 5808.00    1.58650   1.57797   -2.000
 5809.00    1.57901   1.57732   -2.000
 5810.00    1.57483   1.57668   -2.000
 5811.00    1.57660   1.57618    0.000
 5812.00    1.58305   1.57579    0.000
 5813.00    1.58292   1.57559    0.000
 5814.00    1.57827   1.57571    0.000
 5815.00    1.57150   1.57666    0.000
 5816.00    1.56344   1.57866    0.000
 5817.00    1.56415   1.58102    0.000
 5818.00    1.56950   1.58403    0.000
 5819.00    1.57523   1.58720    0.000
 5820.00    1.58115   1.59031    0.000
 5821.00    1.58918   1.59340    0.000
 5822.00    1.59804   1.59601    0.000
 5823.00    1.60436   1.59861    0.000
 5824.00    1.60983   1.60040    0.000
 5825.00    1.61098   1.60198    0.000
 5826.00    1.61091   1.60279    0.000
 5827.00    1.61007   1.60327    0.000
 5828.00    1.60906   1.60328    0.000
 5829.00    1.60837   1.60260    0.000
 5830.00    1.60774   1.60183    0.000
 5831.00    1.60313   1.60065    0.000
 5832.00    1.59794   1.59934    0.000
 5833.00    1.59870   1.59787    0.000
 5834.00    1.60008   1.59709    0.000
 5835.00    1.59135   1.59645    0.000
 5836.00    1.58193   1.59589    0.000
 5837.00    1.58068   1.59596    0.000
 5838.00    1.57971   1.59638    0.000
 5839.00    1.59422   1.59687    0.000
 5840.00    1.60844   1.59703    0.000
 5841.00    1.61320   1.59660    0.000
 5842.00    1.61653   1.59520    0.000
 5843.00    1.59851   1.59272    0.000
 5844.00    1.58084   1.58910    0.000
 5845.00    1.56654   1.58411    0.000
 5846.00    1.55357   1.57833    0.000
 5847.00    1.54994   1.57175    0.000
 5848.00    1.54739   1.56457    0.000
 5849.00    1.55062   1.55684    0.000
 5850.00    1.55167   1.54876    0.000
 5851.00    1.54322   1.54042    0.000
 5852.00    1.53391   1.53282    0.000
 5853.00    1.52149   1.52607    0.000
 5854.00    1.51144   1.51988    0.000
 5855.00    1.50848   1.51458    0.000
 5856.00    1.50535   1.51055    0.000
 5857.00    1.50181   1.50899    0.000
 5858.00    1.50109   1.50837    0.000
 5859.00    1.50657   1.50993    0.000
 5860.00    1.50586   1.51171    0.000
 5861.00    1.49336   1.51492    0.000
 5862.00    1.48497   1.51878    0.000
 5863.00    1.48341   1.52307    0.000
 5864.00    1.48686   1.52719    0.000
 5865.00    1.49758   1.53100    0.000
 5866.00    1.50678   1.53521    0.000
 5867.00    1.51402   1.53867    0.000
 5868.00    1.51911   1.54177    0.000
 5869.00    1.52179   1.54376    0.000
 5870.00    1.52584   1.54470    0.000
 5871.00    1.53127   1.54457    0.000
 5872.00    1.53576   1.54341    0.000
 5873.00    1.53944   1.54132    0.000
 5874.00    1.53351   1.53815    0.000
 5875.00    1.52014   1.53399    0.000
 5876.00    1.50919   1.52939    0.000
 5877.00    1.49989   1.52332    0.000
 5878.00    1.49163   1.51656    0.000
 5879.00    1.48399   1.50833    0.000
 5880.00    1.47329   1.49909    0.000
 5881.00    1.46102   1.48721    0.000
 5882.00    1.45139   1.47269    0.000
 5883.00    1.44296   1.45552    0.000
 5884.00    1.41719   1.43532    0.000
 5885.00    1.38469   1.41238    0.000
 5886.00    1.36026   1.38685    0.000
 5887.00    1.33849   1.35974    0.000
 5888.00    1.31489   1.33313    0.000
 5889.00    1.29078   1.31138    0.000
 5890.00    1.25774   1.29411    0.000
 5891.00    1.22267   1.28107    0.000
 5892.00    1.20320   1.27434    0.000
 5893.00    1.18657   1.27199    0.000
 5894.00    1.18947   1.27556    0.000
 5895.00    1.19511   1.28695    0.000
 5896.00    1.21666   1.30342    0.000
 5897.00    1.23981   1.32312    0.000
 5898.00    1.27834   1.34556    0.000
 5899.00    1.31784   1.36957    0.000
 5900.00    1.35318   1.39358    0.000
 5901.00    1.38838   1.41671    0.104
 5902.00    1.41660   1.43776    0.104
 5903.00    1.44435   1.45605    0.103
 5904.00    1.45862   1.47144    0.104
 5905.00    1.47312   1.48412    0.105
 5906.00    1.49076   1.49416    0.104
 5907.00    1.50755   1.50163    0.104
 5908.00    1.51633   1.50635    0.105
 5909.00    1.52399   1.50954    0.106
 5910.00    1.52406   1.51090    0.107
 5911.00    1.52259   1.51118    0.108
 5912.00    1.51298   1.51007    0.108
 5913.00    1.50329   1.50955    0.107
 5914.00    1.49329   1.50872    0.106
 5915.00    1.48642   1.50877    0.106
 5916.00    1.49051   1.50946    0.106
 5917.00    1.49580   1.51048    0.106
 5918.00    1.50463   1.51258    0.106
 5919.00    1.51331   1.51463    0.105
 5920.00    1.52161   1.51700    0.104
 5921.00    1.52643   1.51930    0.104
 5922.00    1.52374   1.52168    0.103
 5923.00    1.52362   1.52329    0.103
 5924.00    1.52834   1.52471    0.103
 5925.00    1.52955   1.52537    0.103
 5926.00    1.52504   1.52531    0.104
 5927.00    1.52108   1.52507    0.103
 5928.00    1.51793   1.52417    0.102
 5929.00    1.51497   1.52403    0.102
 5930.00    1.51224   1.52393    0.102
 5931.00    1.51068   1.52378    0.102
 5932.00    1.51043   1.52369    0.102
 5933.00    1.50814   1.52376    0.102
 5934.00    1.50388   1.52494    0.101
 5935.00    1.50162   1.52584    0.102
 5936.00    1.50111   1.52696    0.102
 5937.00    1.50455   1.52803    0.103
 5938.00    1.51102   1.52898    0.103
 5939.00    1.51666   1.52927    0.104
 5940.00    1.52175   1.52993    0.105
 5941.00    1.52711   1.53052    0.105
 5942.00    1.53264   1.53088    0.105
 5943.00    1.53310   1.53108    0.106
 5944.00    1.53097   1.53089    0.107
 5945.00    1.52171   1.53030    0.107
 5946.00    1.50929   1.52905    0.106
 5947.00    1.51141   1.52743    0.106
 5948.00    1.51908   1.52601    0.105
 5949.00    1.51856   1.52453    0.105
 5950.00    1.51540   1.52269    0.106
 5951.00    1.51581   1.52082    0.105
 5952.00    1.51720   1.52006    0.104
 5953.00    1.51668   1.51979    0.104
 5954.00    1.51574   1.51991    0.104
 5955.00    1.51312   1.52075    0.103
 5956.00    1.51020   1.52275    0.102
 5957.00    1.50974   1.52553    0.102
 5958.00    1.50962   1.52915    0.103
 5959.00    1.51964   1.53304    0.102
 5960.00    1.53063   1.53728    0.102
 5961.00    1.53868   1.54130    0.102
 5962.00    1.54656   1.54526    0.102
 5963.00    1.54703   1.54891    0.102
 5964.00    1.54725   1.55187    0.103
 5965.00    1.53912   1.55508    0.103
 5966.00    1.53105   1.55739    0.103
 5967.00    1.52444   1.55940    0.102
 5968.00    1.51828   1.56050    0.102
 5969.00    1.51825   1.56112    0.102
 5970.00    1.51929   1.56055    0.102
 5971.00    1.52987   1.55922    0.102
 5972.00    1.53952   1.55681    0.103
 5973.00    1.54310   1.55353    0.102
 5974.00    1.54437   1.54945    0.102
 5975.00    1.53387   1.54519    0.102
 5976.00    1.52459   1.54090    0.103
 5977.00    1.52038   1.53678    0.103
 5978.00    1.51785   1.53319    0.104
 5979.00    1.52104   1.52989    0.104
 5980.00    1.52217   1.52696    0.104
 5981.00    1.51733   1.52464    0.104
 5982.00    1.51254   1.52279    0.105
 5983.00    1.50790   1.52217    0.104
 5984.00    1.50420   1.52273    0.104
 5985.00    1.50249   1.52381    0.104
 5986.00    1.50172   1.52580    0.103
 5987.00    1.50266   1.52842    0.102
 5988.00    1.50665   1.53156    0.101
 5989.00    1.51556   1.53470    0.101
 5990.00    1.52453   1.53768    0.102
 5991.00    1.53361   1.54068    0.102
 5992.00    1.53995   1.54284    0.102
 5993.00    1.54290   1.54412    0.102
 5994.00    1.54134   1.54435    0.102
 5995.00    1.53482   1.54369    0.102
 5996.00    1.52848   1.54231    0.102
 5997.00    1.52229   1.54058    0.101
 5998.00    1.52245   1.53830    0.101
 5999.00    1.52804   1.53574    0.101
 6000.00    1.53140   1.53292    0.102
 6001.00    1.53310   1.52985    0.103
 6002.00    1.52850   1.52728    0.103
 6003.00    1.51974   1.52469    0.103
 6004.00    1.51216   1.52202    0.103
 6005.00    1.50525   1.51986    0.103
 6006.00    1.49965   1.51769    0.103
 6007.00    1.49470   1.51649    0.103
 6008.00    1.49208   1.51577    0.103
 6009.00    1.49049   1.51509    0.103
 6010.00    1.48621   1.51448    0.103
 6011.00    1.48094   1.51384    0.102
 6012.00    1.47812   1.51343    0.103
 6013.00    1.47609   1.51314    0.104
 6014.00    1.47955   1.51252    0.104
 6015.00    1.48446   1.51192    0.104
 6016.00    1.48278   1.51160    0.103
 6017.00    1.47967   1.51158    0.103
 6018.00    1.48653   1.51169    0.103
 6019.00    1.49511   1.51291    0.103
 6020.00    1.49394   1.51462    0.103
 6021.00    1.49150   1.51765    0.102
 6022.00    1.48924   1.52114    0.102
 6023.00    1.48700   1.52577    0.101
 6024.00    1.49446   1.53115    0.101
 6025.00    1.50246   1.53670    0.100
 6026.00    1.51787   1.54302    0.101
 6027.00    1.53345   1.54910    0.101
 6028.00    1.54968   1.55529    0.101
 6029.00    1.56517   1.56078    0.101
 6030.00    1.56354   1.56610    0.101
 6031.00    1.56210   1.57065    0.102
 6032.00    1.56317   1.57457    0.102
 6033.00    1.56440   1.57770    0.102
 6034.00    1.56698   1.58018    0.103
 6035.00    1.56919   1.58209    0.103
 6036.00    1.56906   1.58340    0.102
 6037.00    1.56997   1.58453    0.101
 6038.00    1.57613   1.58519    0.102
 6039.00    1.58142   1.58629    0.103
 6040.00    1.58321   1.58718    0.102
 6041.00    1.58471   1.58856    0.102
 6042.00    1.58527   1.59009    0.103
 6043.00    1.58404   1.59161    0.103
 6044.00    1.57775   1.59327    0.104
 6045.00    1.57311   1.59446    0.103
 6046.00    1.57246   1.59559    0.102
 6047.00    1.57689   1.59571    0.101
 6048.00    1.59192   1.59559    0.101
 6049.00    1.60188   1.59435    0.101
 6050.00    1.60260   1.59255    0.102
 6051.00    1.59976   1.58996    0.102
 6052.00    1.59125   1.58691    0.101
 6053.00    1.58384   1.58380    0.100
 6054.00    1.57796   1.58034    0.101
 6055.00    1.56999   1.57739    0.101
 6056.00    1.55945   1.57447    0.100
 6057.00    1.55247   1.57212    0.099
 6058.00    1.54935   1.56999    0.099
 6059.00    1.54713   1.56817    0.100
 6060.00    1.54576   1.56689    0.101
 6061.00    1.54736   1.56578    0.101
 6062.00    1.55147   1.56582    0.101
 6063.00    1.55495   1.56641    0.102
 6064.00    1.55796   1.56833    0.103
 6065.00    1.56064   1.57147    0.103
 6066.00    1.56310   1.57533    0.103
 6067.00    1.56722   1.57995    0.102
 6068.00    1.57228   1.58471    0.102
 6069.00    1.58185   1.58946    0.102
 6070.00    1.59366   1.59343    0.101
 6071.00    1.60402   1.59640    0.101
 6072.00    1.61375   1.59775    0.102
 6073.00    1.61442   1.59758    0.102
 6074.00    1.61176   1.59552    0.103
 6075.00    1.60064   1.59203    0.102
 6076.00    1.58689   1.58736    0.101
 6077.00    1.57743   1.58173    0.100
 6078.00    1.56907   1.57594    0.100
 6079.00    1.56532   1.57001    0.100
 6080.00    1.56256   1.56456    0.099
 6081.00    1.55929   1.55966    0.099
 6082.00    1.55594   1.55582    0.099
 6083.00    1.55314   1.55257    0.100
 6084.00    1.55040   1.55032    0.101
 6085.00    1.54670   1.54870    0.101
 6086.00    1.54293   1.54764    0.100
 6087.00    1.53967   1.54712    0.099
 6088.00    1.53644   1.54688    0.099
 6089.00    1.53927   1.54719    0.099
 6090.00    1.54214   1.54781    0.099
 6091.00    1.53919   1.54887    0.100
 6092.00    1.53658   1.54987    0.101
 6093.00    1.54135   1.55108    0.100
 6094.00    1.54628   1.55183    0.100
 6095.00    1.55326   1.55227    0.101
 6096.00    1.55922   1.55202    0.102
 6097.00    1.55666   1.55111    0.102
 6098.00    1.55345   1.54924    0.102
 6099.00    1.54621   1.54675    0.102
 6100.00    1.53826   1.54449    0.101
 6101.00    1.52685   1.54215    0.101
 6102.00    1.51760   1.54122    0.101
 6103.00    1.51691   1.54078    0.100
 6104.00    1.51873   1.54169    0.100
 6105.00    1.52878   1.54363    0.100
 6106.00    1.53886   1.54670    0.101
 6107.00    1.54906   1.55035    0.101
 6108.00    1.55612   1.55440    0.100
 6109.00    1.55570   1.55833    0.099
 6110.00    1.55626   1.56171    0.099
 6111.00    1.55885   1.56441    0.099
 6112.00    1.56322   1.56566    0.099
 6113.00    1.57077   1.56580    0.100
 6114.00    1.57513   1.56439    0.101
 6115.00    1.57451   1.56171    0.100
 6116.00    1.57183   1.55771    0.100
 6117.00    1.56631   1.55297    0.100
 6118.00    1.56018   1.54734    0.100
 6119.00    1.55329   1.54234    0.100
 6120.00    1.54365   1.53775    0.101
 6121.00    1.53106   1.53417    0.101
 6122.00    1.52028   1.53185    0.101
 6123.00    1.51119   1.53066    0.101
 6124.00    1.50780   1.53068    0.101
 6125.00    1.50912   1.53157    0.101
 6126.00    1.51661   1.53312    0.101
 6127.00    1.52861   1.53460    0.101
 6128.00    1.53814   1.53554    0.101
 6129.00    1.54609   1.53552    0.101
 6130.00    1.54537   1.53406    0.101
 6131.00    1.53980   1.53108    0.099
 6132.00    1.53236   1.52679    0.099
 6133.00    1.52402   1.52132    0.098
 6134.00    1.51502   1.51628    0.099
 6135.00    1.50573   1.51179    0.100
 6136.00    1.49931   1.50882    0.100
 6137.00    1.49391   1.50732    0.100
 6138.00    1.49706   1.50787    0.100
 6139.00    1.50282   1.51076    0.100
 6140.00    1.51038   1.51532    0.100
 6141.00    1.51840   1.52129    0.099
 6142.00    1.53670   1.52759    0.100
 6143.00    1.55711   1.53392    0.100
 6144.00    1.56899   1.53920    0.101
 6145.00    1.57947   1.54346    0.101
 6146.00    1.57071   1.54600    0.100
 6147.00    1.55961   1.54730    0.098
 6148.00    1.54957   1.54688    0.099
 6149.00    1.53962   1.54538    0.099
 6150.00    1.53352   1.54221    0.099
 6151.00    1.52760   1.53798    0.098
 6152.00    1.52732   1.53257    0.099
 6153.00    1.52697   1.52584    0.100
 6154.00    1.51742   1.51780    0.100
 6155.00    1.50784   1.50831    0.100
 6156.00    1.49757   1.49757    0.101
 6157.00    1.48686   1.48533    0.102
 6158.00    1.47097   1.47266    0.102
 6159.00    1.45483   1.46022    0.101
 6160.00    1.43654   1.44871    0.101
 6161.00    1.41897   1.43878    0.100
 6162.00    1.40579   1.43059    0.099
 6163.00    1.39496   1.42508    0.098
 6164.00    1.39531   1.42191    0.097
 6165.00    1.39608   1.42090    0.096
 6166.00    1.39850   1.42215    0.096
 6167.00    1.40345   1.42559    0.096
 6168.00    1.41658   1.43064    0.097
 6169.00    1.43001   1.43630    0.098
 6170.00    1.44424   1.44302    0.098
 6171.00    1.45405   1.45000    0.097
 6172.00    1.45351   1.45741    0.097
 6173.00    1.45099   1.46459    0.097
 6174.00    1.44446   1.47193    0.097
 6175.00    1.43712   1.47881    0.097
 6176.00    1.42833   1.48501    0.098
 6177.00    1.42263   1.49062    0.098
 6178.00    1.42169   1.49521    0.097
 6179.00    1.42509   1.49870    0.097
 6180.00    1.43439   1.50066    0.098
 6181.00    1.44392   1.50138    0.098
 6182.00    1.45374   1.50022    0.098
 6183.00    1.46029   1.49774    0.098
 6184.00    1.46342   1.49387    0.098
 6185.00    1.46209   1.48898    0.099
 6186.00    1.45664   1.48355    0.099
 6187.00    1.45246   1.47777    0.100
 6188.00    1.44934   1.47265    0.099
 6189.00    1.44567   1.46884    0.099
 6190.00    1.44160   1.46620    0.098
 6191.00    1.43876   1.46530    0.098
 6192.00    1.43671   1.46583    0.098
 6193.00    1.43500   1.46803    0.098
 6194.00    1.43348   1.47113    0.098
 6195.00    1.43787   1.47509    0.101
 6196.00    1.44511   1.47934   -2.000
 6197.00    1.45425   1.48397   -2.000
 6198.00    1.46419   1.48842   -2.000
 6199.00    1.47108   1.49264   -2.000
 6200.00    1.47690   1.49646   -2.000
 6201.00    1.48810   1.49984   -2.000
 6202.00    1.50090   1.50272   -2.000
 6203.00    1.51217   1.50484   -2.000
 6204.00    1.52305   1.50603   -2.000
 6205.00    1.52354   1.50596   -2.000
 6206.00    1.52195   1.50453   -2.000
 6207.00    1.51549   1.50133   -2.000
 6208.00    1.50826   1.49667    0.102
 6209.00    1.50172   1.49027    0.101
 6210.00    1.49525   1.48275    0.100
 6211.00    1.48787   1.47441    0.100
 6212.00    1.48042   1.46580    0.101
 6213.00    1.46271   1.45741    0.099
 6214.00    1.44455   1.44974    0.098
 6215.00    1.43684   1.44313    0.096
 6216.00    1.42939   1.43790    0.095
 6217.00    1.42956   1.43427    0.095
 6218.00    1.42987   1.43196    0.094
 6219.00    1.43258   1.43101    0.095
 6220.00    1.43465   1.43082    0.095
 6221.00    1.42966   1.43132    0.096
 6222.00    1.42449   1.43194    0.096
 6223.00    1.41792   1.43242    0.096
 6224.00    1.41369   1.43246    0.096
 6225.00    1.42313   1.43191    0.096
 6226.00    1.43158   1.43113    0.096
 6227.00    1.43546   1.42976    0.097
 6228.00    1.43844   1.42894    0.097
 6229.00    1.43804   1.42785    0.098
 6230.00    1.43730   1.42781    0.098
 6231.00    1.43546   1.42784    0.098
 6232.00    1.43640   1.42883    0.097
 6233.00    1.44481   1.42981    0.098
 6234.00    1.45122   1.43102    0.098
 6235.00    1.45301   1.43185    0.098
 6236.00    1.45254   1.43212    0.098
 6237.00    1.44755   1.43148    0.097
 6238.00    1.44401   1.43014    0.097
 6239.00    1.44296   1.42812    0.098
 6240.00    1.44164   1.42577    0.099
 6241.00    1.43988   1.42348    0.098
 6242.00    1.43599   1.42160    0.097
 6243.00    1.42926   1.42023    0.096
 6244.00    1.42214   1.41950    0.096
 6245.00    1.41456   1.41932    0.096
 6246.00    1.41135   1.41916    0.096
 6247.00    1.41266   1.41915    0.095
 6248.00    1.41837   1.41844    0.095
 6249.00    1.42811   1.41734    0.096
 6250.00    1.43481   1.41503    0.096
 6251.00    1.43907   1.41222    0.096
 6252.00    1.43555   1.40866    0.096
 6253.00    1.42651   1.40519    0.097
 6254.00    1.41568   1.40228    0.097
 6255.00    1.40373   1.40011    0.097
 6256.00    1.39767   1.39967    0.097
 6257.00    1.39481   1.40055    0.098
 6258.00    1.39031   1.40366    0.100
 6259.00    1.38502   1.40785    0.102
 6260.00    1.38715   1.41399    0.106
 6261.00    1.39230   1.42059    0.112
 6262.00    1.41178   1.42808    0.116
 6263.00    1.43625   1.43518    0.118
 6264.00    1.45260   1.44222    0.117
 6265.00    1.46658   1.44843    0.114
 6266.00    1.46704   1.45400    0.108
 6267.00    1.46422   1.45874    0.102
 6268.00    1.46883   1.46270    0.099
 6269.00    1.47489   1.46607    0.096
 6270.00    1.48012   1.46878    0.096
 6271.00    1.48523   1.47108    0.095
 6272.00    1.48442   1.47276    0.094
 6273.00    1.48293   1.47415    0.094
 6274.00    1.48302   1.47498    0.095
 6275.00    1.48323   1.47563    0.096
 6276.00    1.48168   1.47600    0.096
 6277.00    1.48005   1.47635    0.096
 6278.00    1.47564   1.47690    0.096
 6279.00    1.47144   1.47768    0.096
 6280.00    1.47621   1.47914    0.000
 6281.00    1.48104   1.48100    0.000
 6282.00    1.48674   1.48365    0.000
 6283.00    1.49253   1.48652    0.000
 6284.00    1.49927   1.48984    0.000
 6285.00    1.50638   1.49288    0.000
 6286.00    1.51624   1.49571    0.000
 6287.00    1.52415   1.49769    0.000
 6288.00    1.52094   1.49876    0.000
 6289.00    1.51849   1.49863    0.000
 6290.00    1.51949   1.49739    0.000
 6291.00    1.52086   1.49506    0.000
 6292.00    1.52366   1.49179    0.000
 6293.00    1.52508   1.48788    0.000
 6294.00    1.52229   1.48358    0.000
 6295.00    1.51889   1.47937    0.000
 6296.00    1.51389   1.47543    0.000
 6297.00    1.50795   1.47222    0.000
 6298.00    1.49986   1.46980    0.000
 6299.00    1.49350   1.46861    0.000
 6300.00    1.49053   1.46842    0.000
 6301.00    1.48961   1.46956    0.000
 6302.00    1.49223   1.47151    0.000
 6303.00    1.49499   1.47449    0.000
 6304.00    1.49796   1.47766    0.000
 6305.00    1.50241   1.48119    0.000
 6306.00    1.50880   1.48412    0.000
 6307.00    1.51379   1.48661    0.000
 6308.00    1.51716   1.48788    0.000
 6309.00    1.51894   1.48822    0.000
 6310.00    1.51909   1.48722    0.000
 6311.00    1.51434   1.48534    0.000
 6312.00    1.50517   1.48259    0.000
 6313.00    1.49000   1.47957    0.000
 6314.00    1.47008   1.47654    0.000
 6315.00    1.45772   1.47407    0.000
 6316.00    1.45063   1.47245    0.000
 6317.00    1.45097   1.47200    0.000
 6318.00    1.45587   1.47294    0.000
 6319.00    1.46286   1.47515    0.000
 6320.00    1.47098   1.47874    0.000
 6321.00    1.47978   1.48312    0.095
 6322.00    1.48890   1.48839    0.095
 6323.00    1.50096   1.49369    0.095
 6324.00    1.51419   1.49912    0.095
 6325.00    1.52825   1.50385    0.095
 6326.00    1.54260   1.50797    0.096
 6327.00    1.54955   1.51097    0.096
 6328.00    1.55437   1.51289    0.095
 6329.00    1.55325   1.51358    0.095
 6330.00    1.55073   1.51319    0.096
 6331.00    1.54990   1.51175    0.096
 6332.00    1.54939   1.50965    0.096
 6333.00    1.54289   1.50694    0.097
 6334.00    1.53550   1.50421    0.097
 6335.00    1.52646   1.50142    0.097
 6336.00    1.51725   1.49916    0.097
 6337.00    1.50589   1.49729    0.097
 6338.00    1.49438   1.49614    0.098
 6339.00    1.48807   1.49562    0.097
 6340.00    1.48194   1.49568    0.097
 6341.00    1.48590   1.49644    0.097
 6342.00    1.49006   1.49745    0.097
 6343.00    1.49974   1.49911    0.096
 6344.00    1.50891   1.50073    0.096
 6345.00    1.50974   1.50278    0.096
 6346.00    1.51110   1.50445    0.096
 6347.00    1.51769   1.50610    0.095
 6348.00    1.52447   1.50692    0.094
 6349.00    1.53271   1.50710    0.094
 6350.00    1.53962   1.50602    0.094
 6351.00    1.53920   1.50379    0.095
 6352.00    1.53726   1.50015    0.095
 6353.00    1.52867   1.49529    0.095
 6354.00    1.51980   1.48937    0.096
 6355.00    1.50995   1.48275    0.096
 6356.00    1.50102   1.47589    0.096
 6357.00    1.49491   1.46928    0.096
 6358.00    1.48786   1.46347    0.096
 6359.00    1.47835   1.45897    0.096
 6360.00    1.46971   1.45618    0.097
 6361.00    1.46304   1.45541    0.097
 6362.00    1.46083   1.45677    0.097
 6363.00    1.46725   1.46027    0.098
 6364.00    1.47464   1.46566    0.098
 6365.00    1.48367   1.47265    0.099
 6366.00    1.49254   1.48075    0.099
 6367.00    1.50117   1.48950    0.098
 6368.00    1.51170   1.49835    0.098
 6369.00    1.52471   1.50688    0.098
 6370.00    1.53426   1.51464    0.098
 6371.00    1.53986   1.52140    0.097
 6372.00    1.54628   1.52687    0.096
 6373.00    1.55353   1.53107    0.095
 6374.00    1.55909   1.53394    0.095
 6375.00    1.56314   1.53564    0.094
 6376.00    1.56423   1.53635    0.094
 6377.00    1.56299   1.53627    0.094
 6378.00    1.56133   1.53575    0.095
 6379.00    1.55938   1.53490    0.095
 6380.00    1.55769   1.53409    0.095
 6381.00    1.55617   1.53327    0.095
 6382.00    1.55693   1.53269    0.096
 6383.00    1.55889   1.53212    0.096
 6384.00    1.55961   1.53166    0.096
 6385.00    1.55975   1.53098    0.096
 6386.00    1.55955   1.53014    0.097
 6387.00    1.55921   1.52884    0.097
 6388.00    1.56144   1.52721    0.097
 6389.00    1.56453   1.52511    0.097
 6390.00    1.56417   1.52280    0.097
 6391.00    1.56284   1.52031    0.097
 6392.00    1.55450   1.51791    0.097
 6393.00    1.54455   1.51581    0.097
 6394.00    1.54054   1.51408    0.098
 6395.00    1.53763   1.51306    0.098
 6396.00    1.53014   1.51251    0.098
 6397.00    1.52198   1.51285    0.098
 6398.00    1.51820   1.51357    0.097
 6399.00    1.51488   1.51507    0.097
 6400.00    1.51221   1.51672    0.095
 6401.00    1.50959   1.51876    0.094
 6402.00    1.50674   1.52070    0.095
 6403.00    1.50388   1.52251    0.095
 6404.00    1.51167   1.52394    0.095
 6405.00    1.51951   1.52485    0.096
 6406.00    1.52895   1.52528    0.097
 6407.00    1.53760   1.52514    0.098
 6408.00    1.53442   1.52467    0.097
 6409.00    1.53065   1.52385    0.096
 6410.00    1.52122   1.52296    0.096
 6411.00    1.51195   1.52201    0.096
 6412.00    1.50373   1.52120    0.096
 6413.00    1.49766   1.52050    0.096
 6414.00    1.50319   1.52001    0.097
 6415.00    1.50899   1.51975    0.097
 6416.00    1.51599   1.51972    0.097
 6417.00    1.52226   1.52007    0.096
 6418.00    1.52595   1.52070    0.096
 6419.00    1.52876   1.52191    0.096
 6420.00    1.52890   1.52336    0.096
 6421.00    1.53069   1.52542    0.096
 6422.00    1.53668   1.52749    0.095
 6423.00    1.54377   1.52986    0.094
 6424.00    1.55325   1.53184    0.094
 6425.00    1.56008   1.53362    0.094
 6426.00    1.56188   1.53473    0.095
 6427.00    1.55718   1.53531    0.096
 6428.00    1.54169   1.53533    0.096
 6429.00    1.53178   1.53489    0.096
 6430.00    1.52997   1.53436    0.097
 6431.00    1.53242   1.53370    0.097
 6432.00    1.54033   1.53348    0.097
 6433.00    1.54020   1.53347    0.097
 6434.00    1.53101   1.53418    0.097
 6435.00    1.52708   1.53527    0.096
 6436.00    1.52839   1.53705    0.096
 6437.00    1.53192   1.53916    0.096
 6438.00    1.53741   1.54165    0.097
 6439.00    1.54229   1.54419    0.097
 6440.00    1.54670   1.54658    0.097
 6441.00    1.55236   1.54849    0.097
 6442.00    1.55887   1.54959    0.097
 6443.00    1.56342   1.54973    0.096
 6444.00    1.56681   1.54858    0.096
 6445.00    1.56257   1.54646    0.096
 6446.00    1.55438   1.54317    0.095
 6447.00    1.54787   1.53951    0.096
 6448.00    1.54210   1.53542    0.096
 6449.00    1.53548   1.53201    0.097
 6450.00    1.52852   1.52905    0.098
 6451.00    1.52422   1.52754    0.097
 6452.00    1.52078   1.52692    0.096
 6453.00    1.52411   1.52779    0.096
 6454.00    1.52931   1.52931    0.096
 6455.00    1.53209   1.53165    0.096
 6456.00    1.53432   1.53407    0.096
 6457.00    1.54057   1.53651    0.097
 6458.00    1.54756   1.53856    0.099
 6459.00    1.54569   1.54016    0.099
 6460.00    1.54258   1.54144    0.099
 6461.00    1.53654   1.54222    0.098
 6462.00    1.53019   1.54313    0.097
 6463.00    1.54086   1.54369    0.097
 6464.00    1.55259   1.54482    0.097
 6465.00    1.56478   1.54562    0.096
 6466.00    1.57694   1.54707    0.096
 6467.00    1.57864   1.54805    0.096
 6468.00    1.58036   1.54942    0.095
 6469.00    1.58298   1.55019    0.094
 6470.00    1.58573   1.55092    0.094
 6471.00    1.59020   1.55112    0.095
 6472.00    1.59450   1.55092    0.096
 6473.00    1.59718   1.55034    0.096
 6474.00    1.59827   1.54916    0.096
 6475.00    1.58865   1.54778    0.096
 6476.00    1.57900   1.54572    0.096
 6477.00    1.56917   1.54358    0.096
 6478.00    1.56129   1.54088    0.096
 6479.00    1.56162   1.53820    0.097
 6480.00    1.56118   1.53519    0.097
 6481.00    1.55806   1.53222    0.096
 6482.00    1.55543   1.52906    0.096
 6483.00    1.55426   1.52573    0.097
 6484.00    1.55369   1.52198    0.097
 6485.00    1.55463   1.51752    0.097
 6486.00    1.55541   1.51212    0.096
 6487.00    1.55583   1.50543    0.096
 6488.00    1.55008   1.49738    0.095
 6489.00    1.53280   1.48797    0.096
 6490.00    1.51681   1.47753    0.096
 6491.00    1.50289   1.46651    0.095
 6492.00    1.49124   1.45570    0.095
 6493.00    1.48282   1.44581    0.095
 6494.00    1.47282   1.43792    0.095
 6495.00    1.46083   1.43237    0.094
 6496.00    1.45336   1.43021    0.094
 6497.00    1.45090   1.43098    0.094
 6498.00    1.45016   1.43542    0.094
 6499.00    1.45110   1.44223    0.094
 6500.00    1.45730   1.45170    0.094
 6501.00    1.46804   1.46227    0.094
 6502.00    1.48743   1.47381    0.095
 6503.00    1.51341   1.48510    0.096
 6504.00    1.53193   1.49578    0.097
 6505.00    1.54546   1.50531    0.097
 6506.00    1.55280   1.51332    0.097
 6507.00    1.55651   1.51986    0.097
 6508.00    1.56336   1.52467    0.097
 6509.00    1.57183   1.52817    0.097
 6510.00    1.57748   1.53019    0.097
 6511.00    1.58189   1.53131    0.097
 6512.00    1.58008   1.53144    0.096
 6513.00    1.57590   1.53117    0.096
 6514.00    1.56905   1.53047    0.095
 6515.00    1.56134   1.52984    0.095
 6516.00    1.56344   1.52931    0.095
 6517.00    1.56818   1.52916    0.095
 6518.00    1.57272   1.52943    0.095
 6519.00    1.57721   1.53010    0.095
 6520.00    1.57922   1.53121    0.095
 6521.00    1.58078   1.53246    0.094
 6522.00    1.57871   1.53394    0.094
 6523.00    1.57615   1.53521    0.095
 6524.00    1.57393   1.53645    0.095
 6525.00    1.57175   1.53731    0.095
 6526.00    1.56636   1.53804    0.096
 6527.00    1.56077   1.53845    0.096
 6528.00    1.56104   1.53884    0.000
 6529.00    1.56149   1.53914    0.000
 6530.00    1.56480   1.53958    0.000
 6531.00    1.56810   1.54014    0.000
 6532.00    1.57087   1.54086    0.000
 6533.00    1.57363   1.54172    0.000
 6534.00    1.57621   1.54257    0.000
 6535.00    1.57896   1.54329    0.000
 6536.00    1.58329   1.54364    0.000
 6537.00    1.58772   1.54345    0.000
 6538.00    1.59291   1.54250    0.000
 6539.00    1.59798   1.54067    0.000
 6540.00    1.60242   1.53787    0.000
 6541.00    1.60655   1.53416    0.000
 6542.00    1.60938   1.52954    0.000
 6543.00    1.61222   1.52429    0.000
 6544.00    1.61513   1.51838    0.000
 6545.00    1.61976   1.51221    0.000
 6546.00    1.62935   1.50560    0.000
 6547.00    1.63656   1.49888    0.000
 6548.00    1.63791   1.49170    0.000
 6549.00    1.63337   1.48415    0.000
 6550.00    1.61632   1.47586    0.000
 6551.00    1.59829   1.46670    0.000
 6552.00    1.57845   1.45638    0.000
 6553.00    1.56031   1.44477    0.000
 6554.00    1.54493   1.43179    0.000
 6555.00    1.53012   1.41758    0.000
 6556.00    1.51612   1.40241    0.000
 6557.00    1.50671   1.38684    0.000
 6558.00    1.50301   1.37158    0.000
 6559.00    1.50316   1.35748    0.000
 6560.00    1.50751   1.34563    0.000
 6561.00    1.50991   1.33668    0.000
 6562.00    1.51043   1.33181    0.000
 6563.00    1.51101   1.33079    0.000
 6564.00    1.51165   1.33440    0.000
 6565.00    1.51069   1.34144    0.000
 6566.00    1.50853   1.35210    0.000
 6567.00    1.50709   1.36450    0.000
 6568.00    1.50611   1.37851    0.000
 6569.00    1.50637   1.39248    0.000
 6570.00    1.50734   1.40624    0.000
 6571.00    1.50699   1.41881    0.000
 6572.00    1.50598   1.43056    0.000
 6573.00    1.51397   1.44085    0.000
 6574.00    1.52586   1.45018    0.000
 6575.00    1.53391   1.45824    0.000
 6576.00    1.54053   1.46588    0.000
 6577.00    1.55342   1.47250    0.000
 6578.00    1.56830   1.47894    0.000
 6579.00    1.60410   1.48453    0.000
 6580.00    1.64544   1.48979    0.000
 6581.00    1.69149   1.49421    0.000
 6582.00    1.73857   1.49805    0.000
 6583.00    1.76741   1.50111    0.000
 6584.00    1.79311   1.50323    0.000
 6585.00    1.78255   1.50457    0.000
 6586.00    1.76726   1.50478    0.000
 6587.00    1.72746   1.50423    0.000
 6588.00    1.68542   1.50274    0.000
 6589.00    1.64743   1.50074    0.000
 6590.00    1.60966   1.49833    0.000
 6591.00    1.58802   1.49584    0.000
 6592.00    1.56678   1.49367    0.000
 6593.00    1.54985   1.49198    0.000
 6594.00    1.53328   1.49121    0.000
 6595.00    1.52521   1.49123    0.000
 6596.00    1.51811   1.49216    0.000
 6597.00    1.52346   1.49376    0.000
 6598.00    1.52919   1.49577    0.000
 6599.00    1.53818   1.49793    0.000
 6600.00    1.54710   1.49995    0.000
 6601.00    1.55559   1.50160    0.000
 6602.00    1.56395   1.50269    0.000
 6603.00    1.57172   1.50312    0.000
 6604.00    1.57721   1.50316    0.000
 6605.00    1.57354   1.50280    0.000
 6606.00    1.56839   1.50265    0.000
 6607.00    1.55829   1.50259    0.000
 6608.00    1.54949   1.50320    0.000
 6609.00    1.54438   1.50431    0.094
 6610.00    1.54154   1.50624    0.094
 6611.00    1.54418   1.50877    0.094
 6612.00    1.54845   1.51177    0.094
 6613.00    1.55611   1.51512    0.095
 6614.00    1.56306   1.51826    0.095
 6615.00    1.56875   1.52129    0.095
 6616.00    1.57219   1.52351    0.096
 6617.00    1.57206   1.52530    0.096
 6618.00    1.57282   1.52586    0.097
 6619.00    1.57483   1.52564    0.097
 6620.00    1.57630   1.52437    0.098
 6621.00    1.57711   1.52241    0.098
 6622.00    1.57572   1.51978    0.098
 6623.00    1.57195   1.51647    0.098
 6624.00    1.56430   1.51301    0.098
 6625.00    1.55297   1.50921    0.098
 6626.00    1.54220   1.50563    0.097
 6627.00    1.53190   1.50193    0.096
 6628.00    1.52243   1.49869    0.096
 6629.00    1.51358   1.49561    0.095
 6630.00    1.50874   1.49309    0.095
 6631.00    1.50651   1.49105    0.095
 6632.00    1.50608   1.48960    0.095
 6633.00    1.50667   1.48882    0.095
 6634.00    1.50850   1.48839    0.095
 6635.00    1.51093   1.48868    0.095
 6636.00    1.52013   1.48916    0.096
 6637.00    1.53224   1.49013    0.096
 6638.00    1.54015   1.49107    0.096
 6639.00    1.54653   1.49223    0.097
 6640.00    1.55065   1.49318    0.097
 6641.00    1.55406   1.49417    0.098
 6642.00    1.54970   1.49490    0.098
 6643.00    1.54331   1.49553    0.097
 6644.00    1.53857   1.49597    0.097
 6645.00    1.53417   1.49643    0.098
 6646.00    1.53143   1.49677    0.097
 6647.00    1.52897   1.49712    0.097
 6648.00    1.52512   1.49730    0.097
 6649.00    1.52109   1.49749    0.096
 6650.00    1.52462   1.49734    0.096
 6651.00    1.52881   1.49714    0.096
 6652.00    1.53287   1.49644    0.096
 6653.00    1.53693   1.49555    0.095
 6654.00    1.54081   1.49413    0.095
 6655.00    1.54468   1.49242    0.094
 6656.00    1.54820   1.49029    0.094
 6657.00    1.55120   1.48783    0.094
 6658.00    1.54300   1.48523    0.095
 6659.00    1.53447   1.48240    0.095
 6660.00    1.52192   1.47988    0.095
 6661.00    1.51004   1.47733    0.096
 6662.00    1.50366   1.47558    0.096
 6663.00    1.49712   1.47415    0.096
 6664.00    1.48956   1.47367    0.097
 6665.00    1.48373   1.47377    0.097
 6666.00    1.48623   1.47462    0.097
 6667.00    1.49152   1.47591    0.097
 6668.00    1.50784   1.47741    0.098
 6669.00    1.52189   1.47909    0.098
 6670.00    1.52850   1.48019    0.097
 6671.00    1.53487   1.48094    0.096
 6672.00    1.54060   1.48080    0.096
 6673.00    1.54336   1.48011    0.097
 6674.00    1.53908   1.47868    0.097
 6675.00    1.53155   1.47690    0.096
 6676.00    1.51736   1.47488    0.096
 6677.00    1.50646   1.47309    0.096
 6678.00    1.50143   1.47172    0.096
 6679.00    1.49917   1.47103    0.098
 6680.00    1.50121   1.47116    0.100
 6681.00    1.50250   1.47191    0.101
 6682.00    1.50276   1.47340    0.101
 6683.00    1.50545   1.47545    0.100
 6684.00    1.51107   1.47794    0.099
 6685.00    1.51849   1.48017    0.098
 6686.00    1.52784   1.48215    0.098
 6687.00    1.53070   1.48376    0.098
 6688.00    1.52748   1.48468    0.098
 6689.00    1.52330   1.48519    0.098
 6690.00    1.51834   1.48487    0.098
 6691.00    1.51754   1.48431    0.098
 6692.00    1.51976   1.48307    0.098
 6693.00    1.51991   1.48186    0.098
 6694.00    1.51873   1.48033    0.098
 6695.00    1.51627   1.47901    0.097
 6696.00    1.51308   1.47769    0.000
 6697.00    1.50947   1.47672    0.000
 6698.00    1.50565   1.47599    0.000
 6699.00    1.50551   1.47549    0.000
 6700.00    1.50693   1.47524    0.000
 6701.00    1.50585   1.47504    0.000
 6702.00    1.50386   1.47512    0.000
 6703.00    1.49827   1.47481    0.000
 6704.00    1.49158   1.47448    0.000
 6705.00    1.49323   1.47357    0.000
 6706.00    1.49700   1.47222    0.000
 6707.00    1.50107   1.47035    0.000
 6708.00    1.50521   1.46788    0.000
 6709.00    1.50878   1.46504    0.000
 6710.00    1.51225   1.46178    0.000
 6711.00    1.52032   1.45816    0.000
 6712.00    1.52893   1.45444    0.000
 6713.00    1.55035   1.45075    0.000
 6714.00    1.57284   1.44752    0.000
 6715.00    1.57853   1.44476    0.000
 6716.00    1.58342   1.44304    0.000
 6717.00    1.57761   1.44208    0.000
 6718.00    1.57147   1.44209    0.000
 6719.00    1.55516   1.44324    0.000
 6720.00    1.53892   1.44491    0.000
 6721.00    1.52394   1.44762    0.000
 6722.00    1.50954   1.45036    0.000
 6723.00    1.50166   1.45394    0.000
 6724.00    1.49504   1.45698    0.000
 6725.00    1.49847   1.46007    0.000
 6726.00    1.50366   1.46262    0.000
 6727.00    1.51946   1.46504    0.000
 6728.00    1.53709   1.46696    0.000
 6729.00    1.56336   1.46832    0.000
 6730.00    1.58418   1.46926    0.000
 6731.00    1.58392   1.46965    0.000
 6732.00    1.58288   1.46980    0.000
 6733.00    1.57931   1.46917    0.000
 6734.00    1.57362   1.46837    0.000
 6735.00    1.56214   1.46691    0.000
 6736.00    1.54939   1.46537    0.000
 6737.00    1.53368   1.46339    0.000
 6738.00    1.52187   1.46147    0.000
 6739.00    1.51792   1.45942    0.000
 6740.00    1.51145   1.45742    0.000
 6741.00    1.50052   1.45547    0.000
 6742.00    1.49001   1.45353    0.000
 6743.00    1.48012   1.45196    0.000
 6744.00    1.47653   1.45043    0.000
 6745.00    1.48143   1.44943    0.000
 6746.00    1.48102   1.44838    0.000
 6747.00    1.47429   1.44799    0.000
 6748.00    1.46856   1.44778    0.000
 6749.00    1.46388   1.44848    0.000
 6750.00    1.45715   1.44940    0.000
 6751.00    1.44852   1.45113    0.000
 6752.00    1.44907   1.45346    0.000
 6753.00    1.45713   1.45623    0.106
 6754.00    1.46648   1.45971    0.108
 6755.00    1.47676   1.46302    0.109
 6756.00    1.47220   1.46691    0.110
 6757.00    1.45828   1.47003    0.110
 6758.00    1.46651   1.47320    0.111
 6759.00    1.48693   1.47560    0.111
 6760.00    1.54235   1.47726    0.112
 6761.00    1.61453   1.47825    0.115
 6762.00    1.66087   1.47837    0.116
 6763.00    1.69652   1.47801    0.118
 6764.00    1.71085   1.47702    0.118
 6765.00    1.71764   1.47604    0.117
 6766.00    1.71665   1.47491    0.116
 6767.00    1.71333   1.47422    0.115
 6768.00    1.70740   1.47389    0.114
 6769.00    1.70082   1.47413    0.113
 6770.00    1.68842   1.47496    0.112
 6771.00    1.67485   1.47634    0.112
 6772.00    1.64220   1.47818    0.110
 6773.00    1.60656   1.48012    0.108
 6774.00    1.59163   1.48203    0.107
 6775.00    1.57911   1.48341    0.106
 6776.00    1.55513   1.48428    0.105
 6777.00    1.53025   1.48440    0.104
 6778.00    1.55368   1.48352    0.106
 6779.00    1.57921   1.48190    0.108
 6780.00    1.58865   1.47931    0.109
 6781.00    1.59753   1.47654    0.110
 6782.00    1.58771   1.47317    0.109
 6783.00    1.57844   1.47021    0.109
 6784.00    1.57912   1.46721    0.108
 6785.00    1.57887   1.46487    0.107
 6786.00    1.56858   1.46307    0.107
 6787.00    1.55880   1.46202    0.107
 6788.00    1.55303   1.46173    0.107
 6789.00    1.55091   1.46190    0.107
 6790.00    1.57004   1.46274    0.108
 6791.00    1.58481   1.46357    0.108
 6792.00    1.57941   1.46478    0.109
 6793.00    1.57810   1.46596    0.109
 6794.00    1.59218   1.46723    0.108
 6795.00    1.59836   1.46856    0.108
 6796.00    1.57958   1.46987    0.107
 6797.00    1.56851   1.47133    0.106
 6798.00    1.57813   1.47260    0.106
 6799.00    1.57961   1.47403    0.106
 6800.00    1.56238   1.47521    0.105
 6801.00    1.54952   1.47624    0.105
 6802.00    1.54535   1.47708    0.106
 6803.00    1.54417   1.47764    0.106
 6804.00    1.54819   1.47800    0.107
 6805.00    1.54812   1.47814    0.106
 6806.00    1.54185   1.47804    0.106
 6807.00    1.53821   1.47793    0.105
 6808.00    1.53808   1.47773    0.104
 6809.00    1.54032   1.47753    0.105
 6810.00    1.54533   1.47753    0.106
 6811.00    1.54285   1.47756    0.107
 6812.00    1.53259   1.47776    0.108
 6813.00    1.54314   1.47823    0.110
 6814.00    1.57267   1.47887    0.110
 6815.00    1.58125   1.47970    0.110
 6816.00    1.57298   1.48080    0.109
 6817.00    1.56584   1.48188    0.108
 6818.00    1.55950   1.48327    0.107
 6819.00    1.55864   1.48467    0.105
 6820.00    1.56119   1.48601    0.105
 6821.00    1.57168   1.48729    0.104
 6822.00    1.58649   1.48823    0.105
 6823.00    1.59293   1.48909    0.105
 6824.00    1.59543   1.48970    0.105
 6825.00    1.58592   1.49015    0.104
 6826.00    1.57152   1.49026    0.104
 6827.00    1.56621   1.49019    0.105
 6828.00    1.56405   1.48975    0.107
 6829.00    1.57184   1.48920    0.108
 6830.00    1.58255   1.48822    0.109
 6831.00    1.58466   1.48719    0.109
 6832.00    1.58470   1.48584    0.108
 6833.00    1.57782   1.48422    0.107
 6834.00    1.56960   1.48224    0.106
 6835.00    1.57378   1.47984    0.107
 6836.00    1.57984   1.47737    0.109
 6837.00    1.56960   1.47469    0.110
 6838.00    1.55754   1.47226    0.110
 6839.00    1.54248   1.46993    0.110
 6840.00    1.52721   1.46829    0.110
 6841.00    1.52436   1.46703    0.109
 6842.00    1.52200   1.46665    0.107
 6843.00    1.50937   1.46687    0.106
 6844.00    1.49750   1.46770    0.104
 6845.00    1.51872   1.46906    0.103
 6846.00    1.53962   1.47050    0.102
 6847.00    1.55525   1.47190    0.104
 6848.00    1.57011   1.47272    0.105
 6849.00    1.57701   1.47301    0.105
 6850.00    1.58240   1.47266    0.104
 6851.00    1.57649   1.47166    0.105
 6852.00    1.56877   1.47014    0.106
 6853.00    1.55085   1.46824    0.106
 6854.00    1.53305   1.46615    0.105
 6855.00    1.51580   1.46405    0.104
 6856.00    1.49934   1.46211    0.104
 6857.00    1.48582   1.46032    0.105
 6858.00    1.47335   1.45914    0.105
 6859.00    1.46409   1.45848    0.105
 6860.00    1.46203   1.45816    0.105
 6861.00    1.47890   1.45837    0.105
 6862.00    1.49193   1.45870    0.105
 6863.00    1.49628   1.45904    0.104
 6864.00    1.49832   1.45965    0.104
 6865.00    1.49584   1.46037    0.104
 6866.00    1.49816   1.46119    0.105
 6867.00    1.50863   1.46176    0.107
 6868.00    1.51682   1.46232    0.108
 6869.00    1.52158   1.46280    0.108
 6870.00    1.52785   1.46334    0.108
 6871.00    1.53608   1.46426    0.107
 6872.00    1.53948   1.46551    0.106
 6873.00    1.53729   1.46672    0.106
 6874.00    1.52835   1.46804    0.105
 6875.00    1.51252   1.46940    0.104
 6876.00    1.50448   1.47100    0.104
 6877.00    1.50345   1.47236    0.105
 6878.00    1.50304   1.47393    0.105
 6879.00    1.50314   1.47529    0.106
 6880.00    1.50182   1.47698    0.105
 6881.00    1.49952   1.47840    0.105
 6882.00    1.49947   1.48021    0.104
 6883.00    1.50080   1.48203    0.104
 6884.00    1.49802   1.48417    0.103
 6885.00    1.49304   1.48667    0.103
 6886.00    1.49592   1.48947    0.103
 6887.00    1.50245   1.49262    0.104
 6888.00    1.50779   1.49534    0.104
 6889.00    1.51265   1.49829    0.104
 6890.00    1.51225   1.50087    0.105
 6891.00    1.51006   1.50316    0.106
 6892.00    1.51037   1.50506    0.106
 6893.00    1.51139   1.50666    0.106
 6894.00    1.52432   1.50791    0.107
 6895.00    1.54008   1.50877    0.107
 6896.00    1.53776   1.50983    0.107
 6897.00    1.53200   1.51053    0.106
 6898.00    1.53746   1.51143    0.107
 6899.00    1.54458   1.51234    0.108
 6900.00    1.54239   1.51350    0.108
 6901.00    1.53919   1.51449    0.107
 6902.00    1.54256   1.51547    0.107
 6903.00    1.54639   1.51636    0.107
 6904.00    1.53256   1.51733    0.106
 6905.00    1.51809   1.51788    0.104
 6906.00    1.51968   1.51798    0.104
 6907.00    1.52120   1.51787    0.104
 6908.00    1.51845   1.51722    0.104
 6909.00    1.51564   1.51658    0.105
 6910.00    1.51177   1.51522    0.105
 6911.00    1.50788   1.51398    0.105
 6912.00    1.50378   1.51236    0.106
 6913.00    1.49978   1.51090    0.106
 6914.00    1.49643   1.50935    0.106
 6915.00    1.49398   1.50813    0.106
 6916.00    1.49654   1.50706    0.106
 6917.00    1.50139   1.50619    0.106
 6918.00    1.51630   1.50597    0.107
 6919.00    1.52713   1.50514    0.107
 6920.00    1.52314   1.50499    0.107
 6921.00    1.51985   1.50444    0.107
 6922.00    1.51869   1.50404    0.106
 6923.00    1.51721   1.50365    0.105
 6924.00    1.51491   1.50310    0.105
 6925.00    1.51269   1.50286    0.104
 6926.00    1.51066   1.50230    0.104
 6927.00    1.50689   1.50236    0.104
 6928.00    1.49976   1.50267    0.105
 6929.00    1.49946   1.50352    0.105
 6930.00    1.51065   1.50463    0.106
 6931.00    1.51748   1.50560    0.106
 6932.00    1.51791   1.50689    0.107
 6933.00    1.51485   1.50793    0.108
 6934.00    1.50726   1.50908    0.109
 6935.00    1.50518   1.50994    0.110
 6936.00    1.50939   1.51084    0.109
 6937.00    1.51351   1.51183    0.109
 6938.00    1.51754   1.51215    0.110
 6939.00    1.51683   1.51235    0.110
 6940.00    1.51192   1.51202    0.109
 6941.00    1.51041   1.51168    0.109
 6942.00    1.51156   1.51106    0.109
 6943.00    1.51420   1.51033    0.109
 6944.00    1.51787   1.50945    0.108
 6945.00    1.51149   1.50853    0.107
 6946.00    1.49906   1.50786    0.106
 6947.00    1.49771   1.50723    0.106
 6948.00    1.50218   1.50725    0.105
 6949.00    1.50417   1.50770    0.106
 6950.00    1.50502   1.50825    0.107
 6951.00    1.50319   1.50903    0.107
 6952.00    1.50029   1.51018    0.106
 6953.00    1.49798   1.51132    0.107
 6954.00    1.49586   1.51297    0.107
 6955.00    1.50490   1.51513    0.109
 6956.00    1.51707   1.51732    0.110
 6957.00    1.51934   1.52011    0.111
 6958.00    1.51931   1.52279    0.111
 6959.00    1.52039   1.52576    0.111
 6960.00    1.52168   1.52808    0.110
 6961.00    1.52048   1.53065    0.110
 6962.00    1.51892   1.53265    0.110
 6963.00    1.51336   1.53454    0.109
 6964.00    1.50739   1.53588    0.107
 6965.00    1.51123   1.53667    0.108
 6966.00    1.51574   1.53701    0.108
 6967.00    1.51745   1.53637    0.109
 6968.00    1.51907   1.53512    0.110
 6969.00    1.51990   1.53324    0.109
 6970.00    1.52042   1.53101    0.109
 6971.00    1.51133   1.52785    0.109
 6972.00    1.50256   1.52424    0.109
 6973.00    1.49855   1.52033    0.109
 6974.00    1.49370   1.51654    0.109
 6975.00    1.48070   1.51357    0.110
 6976.00    1.46967   1.51072    0.111
 6977.00    1.47234   1.50873    0.111
 6978.00    1.47341   1.50780    0.111
 6979.00    1.46594   1.50808    0.110
 6980.00    1.46124   1.50934    0.110
 6981.00    1.46853   1.51163    0.109
 6982.00    1.47517   1.51568    0.109
 6983.00    1.47949   1.51996    0.108
 6984.00    1.48714   1.52412    0.108
 6985.00    1.50475   1.52808    0.109
 6986.00    1.51772   1.53148    0.109
 6987.00    1.51891   1.53430    0.109
 6988.00    1.51972   1.53648    0.109
 6989.00    1.51973   1.53798    0.109
 6990.00    1.52022   1.53885    0.110
 6991.00    1.52166   1.53904    0.110
 6992.00    1.51952   1.53890    0.111
 6993.00    1.51148   1.53858    0.111
 6994.00    1.50598   1.53784    0.111
 6995.00    1.50414   1.53657    0.111
 6996.00    1.50154   1.53499    0.112
 6997.00    1.49797   1.53309    0.112
 6998.00    1.49656   1.53154    0.112
 6999.00    1.49758   1.52972    0.113
 7000.00    1.49319   1.52810    0.113
 7001.00    1.48343   1.52640    0.112
 7002.00    1.45738   1.52482    0.111
 7003.00    1.41707   1.52417    0.111
 7004.00    1.41323   1.52362    0.111
 7005.00    1.43750   1.52326    0.111
 7006.00    1.45225   1.52237    0.111
 7007.00    1.46053   1.52183    0.112
 7008.00    1.46111   1.52142    0.112
 7009.00    1.45711   1.52117    0.113
 7010.00    1.45755   1.52077    0.113
 7011.00    1.46028   1.52032    0.113
 7012.00    1.46336   1.51975    0.114
 7013.00    1.46659   1.51888    0.115
 7014.00    1.46149   1.51826    0.115
 7015.00    1.45316   1.51803    0.116
 7016.00    1.44937   1.51787    0.115
 7017.00    1.44706   1.51777    0.115
 7018.00    1.44611   1.51766    0.115
 7019.00    1.44555   1.51844    0.115
 7020.00    1.44579   1.52039    0.116
 7021.00    1.44622   1.52201    0.116
 7022.00    1.44792   1.52344    0.115
 7023.00    1.44985   1.52482    0.114
 7024.00    1.45846   1.52626    0.114
 7025.00    1.46799   1.52744    0.114
 7026.00    1.47830   1.52900    0.114
 7027.00    1.48870   1.53098    0.115
 7028.00    1.47806   1.53338    0.114
 7029.00    1.46610   1.53530    0.114
 7030.00    1.45828   1.53731    0.114
 7031.00    1.45066   1.53957    0.115
 7032.00    1.46563   1.54187    0.117
 7033.00    1.47987   1.54423    0.119
 7034.00    1.47434   1.54661    0.118
 7035.00    1.46957   1.54921    0.117
 7036.00    1.47571   1.55211    0.118
 7037.00    1.48173   1.55541    0.118
 7038.00    1.48668   1.55912    0.118
 7039.00    1.49184   1.56294    0.118
 7040.00    1.49839   1.56622    0.118
 7041.00    1.50377   1.56971    0.118
 7042.00    1.50302   1.57386    0.117
 7043.00    1.50618   1.57660    0.117
 7044.00    1.52581   1.57815    0.117
 7045.00    1.53997   1.57803    0.117
 7046.00    1.53509   1.57653    0.117
 7047.00    1.53125   1.57331    0.118
 7048.00    1.53047   1.56900    0.119
 7049.00    1.53260   1.56353    0.120
 7050.00    1.54199   1.55630   -2.000
 7051.00    1.55093   1.54808   -2.000
 7052.00    1.55892   1.53868   -2.000
 7053.00    1.56113   1.52909   -2.000
 7054.00    1.55256   1.51921   -2.000
 7055.00    1.55128   1.50940   -2.000
 7056.00    1.56187   1.50080   -2.000
 7057.00    1.56711   1.49284   -2.000
 7058.00    1.56467   1.48619   -2.000
 7059.00    1.56933   1.48028   -2.000
 7060.00    1.58292   1.47526   -2.000
 7061.00    1.59490   1.47093   -2.000
 7062.00    1.60512   1.46756   -2.000
 7063.00    1.62087   1.46530   -2.000
 7064.00    1.64202   1.46433   -2.000
 7065.00    1.63227   1.46391   -2.000
 7066.00    1.59586   1.46432   -2.000
 7067.00    1.55990   1.46565   -2.000
 7068.00    1.52429   1.46705   -2.000
 7069.00    1.53053   1.46942   -2.000
 7070.00    1.56472   1.47204   -2.000
 7071.00    1.59714   1.47535   -2.000
 7072.00    1.62852   1.47906   -2.000
 7073.00    1.65176   1.48236   -2.000
 7074.00    1.67085   1.48467   -2.000
 7075.00    1.66685   1.48591   -2.000
 7076.00    1.65267   1.48639   -2.000
 7077.00    1.64321   1.48560   -2.000
 7078.00    1.63555   1.48357   -2.000
 7079.00    1.63720   1.48007   -2.000
 7080.00    1.64185   1.47551   -2.000
 7081.00    1.63622   1.46964   -2.000
 7082.00    1.62783   1.46280   -2.000
 7083.00    1.60146   1.45552   -2.000
 7084.00    1.57113   1.44733   -2.000
 7085.00    1.56408   1.43911   -2.000
 7086.00    1.56111   1.43106   -2.000
 7087.00    1.54841   1.42381   -2.000
 7088.00    1.53440   1.41809   -2.000
 7089.00    1.52162   1.41298   -2.000
 7090.00    1.50897   1.40891   -2.000
 7091.00    1.48946   1.40581   -2.000
 7092.00    1.46955   1.40442   -2.000
 7093.00    1.46286   1.40322   -2.000
 7094.00    1.45657   1.40406   -2.000
 7095.00    1.45931   1.40462   -2.000
 7096.00    1.46113   1.40641   -2.000
 7097.00    1.44013   1.40855   -2.000
 7098.00    1.41964   1.41041   -2.000
 7099.00    1.40604   1.41332   -2.000
 7100.00    1.39188   1.41508   -2.000
 7101.00    1.37284   1.41783   -2.000
 7102.00    1.35759   1.41910   -2.000
 7103.00    1.36714   1.42068   -2.000
 7104.00    1.37420   1.42146   -2.000
 7105.00    1.36854   1.42235   -2.000
 7106.00    1.36225   1.42303   -2.000
 7107.00    1.35335   1.42380   -2.000
 7108.00    1.34237   1.42407   -2.000
 7109.00    1.32433   1.42419   -2.000
 7110.00    1.31679   1.42457   -2.000
 7111.00    1.33942   1.42504   -2.000
 7112.00    1.35575   1.42562   -2.000
 7113.00    1.35661   1.42563   -2.000
 7114.00    1.35885   1.42642   -2.000
 7115.00    1.36402   1.42688   -2.000
 7116.00    1.37867   1.42732   -2.000
 7117.00    1.41076   1.42688   -2.000
 7118.00    1.43476   1.42599   -2.000
 7119.00    1.44578   1.42481   -2.000
 7120.00    1.45775   1.42245   -2.000
 7121.00    1.47106   1.42015   -2.000
 7122.00    1.48175   1.41660   -2.000
 7123.00    1.48920   1.41341   -2.000
 7124.00    1.47975   1.40944   -2.000
 7125.00    1.45183   1.40583   -2.000
 7126.00    1.43721   1.40268   -2.000
 7127.00    1.43542   1.39920   -2.000
 7128.00    1.44442   1.39663   -2.000
 7129.00    1.46259   1.39452   -2.000
 7130.00    1.45332   1.39383   -2.000
 7131.00    1.42350   1.39341   -2.000
 7132.00    1.40295   1.39393   -2.000
 7133.00    1.38850   1.39481   -2.000
 7134.00    1.38567   1.39709   -2.000
 7135.00    1.38953   1.39958   -2.000
 7136.00    1.39827   1.40193   -2.000
 7137.00    1.40945   1.40456   -2.000
 7138.00    1.42471   1.40627   -2.000
 7139.00    1.44175   1.40819   -2.000
 7140.00    1.44499   1.40949   -2.000
 7141.00    1.44309   1.41020   -2.000
 7142.00    1.43410   1.41085   -2.000
 7143.00    1.42288   1.41171   -2.000
 7144.00    1.40676   1.41232   -2.000
 7145.00    1.38936   1.41256   -2.000
 7146.00    1.37850   1.41319   -2.000
 7147.00    1.36905   1.41392   -2.000
 7148.00    1.37527   1.41491   -2.000
 7149.00    1.38416   1.41644   -2.000
 7150.00    1.38744   1.41792   -2.000
 7151.00    1.39001   1.42005   -2.000
 7152.00    1.38132   1.42288   -2.000
 7153.00    1.37161   1.42519   -2.000
 7154.00    1.37588   1.42747   -2.000
 7155.00    1.38092   1.42944   -2.000
 7156.00    1.37968   1.43045   -2.000
 7157.00    1.37844   1.43117   -2.000
 7158.00    1.39023   1.43107   -2.000
 7159.00    1.40204   1.43174   -2.000
 7160.00    1.41427   1.43139   -2.000
 7161.00    1.42738   1.43097   -2.000
 7162.00    1.45161   1.43075   -2.000
 7163.00    1.47640   1.43077   -2.000
 7164.00    1.50605   1.43161   -2.000
 7165.00    1.53215   1.43233   -2.000
 7166.00    1.53585   1.43357   -2.000
 7167.00    1.53530   1.43496   -2.000
 7168.00    1.51363   1.43767   -2.000
 7169.00    1.49277   1.44035   -2.000
 7170.00    1.47514   1.44274   -2.000
 7171.00    1.45665   1.44472   -2.000
 7172.00    1.43526   1.44593   -2.000
 7173.00    1.41530   1.44692   -2.000
 7174.00    1.39936   1.44732   -2.000
 7175.00    1.39708   1.44718   -2.000
 7176.00    1.42772   1.44643   -2.000
 7177.00    1.44855   1.44528   -2.000
 7178.00    1.44896   1.44361   -2.000
 7179.00    1.44232   1.44179   -2.000
 7180.00    1.42293   1.43990   -2.000
 7181.00    1.39926   1.43759   -2.000
 7182.00    1.36884   1.43513   -2.000
 7183.00    1.34852   1.43304   -2.000
 7184.00    1.34226   1.43160   -2.000
 7185.00    1.34235   1.43048   -2.000
 7186.00    1.35021   1.42940   -2.000
 7187.00    1.36112   1.42784   -2.000
 7188.00    1.37533   1.42703   -2.000
 7189.00    1.37339   1.42635   -2.000
 7190.00    1.35609   1.42596   -2.000
 7191.00    1.34176   1.42697   -2.000
 7192.00    1.32992   1.42783   -2.000
 7193.00    1.32793   1.42956   -2.000
 7194.00    1.33322   1.43093   -2.000
 7195.00    1.33538   1.43220   -2.000
 7196.00    1.33552   1.43390   -2.000
 7197.00    1.32405   1.43545   -2.000
 7198.00    1.30599   1.43682   -2.000
 7199.00    1.32313   1.43736   -2.000
 7200.00    1.35766   1.43769   -2.000
 7201.00    1.36774   1.43841   -2.000
 7202.00    1.36736   1.43850   -2.000
 7203.00    1.38187   1.43861   -2.000
 7204.00    1.40181   1.43858   -2.000
 7205.00    1.36918   1.43860   -2.000
 7206.00    1.32026   1.43913   -2.000
 7207.00    1.29067   1.43890   -2.000
 7208.00    1.26606   1.43949   -2.000
 7209.00    1.27109   1.43984   -2.000
 7210.00    1.28235   1.44158   -2.000
 7211.00    1.28223   1.44452   -2.000
 7212.00    1.28023   1.44694   -2.000
 7213.00    1.28672   1.45023   -2.000
 7214.00    1.29427   1.45276   -2.000
 7215.00    1.28410   1.45561   -2.000
 7216.00    1.27240   1.45839   -2.000
 7217.00    1.29544   1.46146   -2.000
 7218.00    1.32025   1.46506   -2.000
