###################################################################
## OUTPUT of StarlightChains_v04.for    [Cid@UFSC - 01/Apr/2007] ##
###################################################################

## Some input info
KUG0210-078._34_34.txt                   [arq_obs]
Base.CB07.vall.4m                        [arq_base]
Masks.EmLines.NEW.gm                     [arq_masks]
StCv04.C11.config                        [arq_config]
   66                                    [N_base]
    0                                    [N_YAV_components = # of components with extra extinction!]
    0                                    [i_FitPowerLaw (1/0 = Yes/No)]
-9.99                                    [alpha_PowerLaw]
CCM                                      [red_law_option]
 1.458241                                [q_norm = A(l_norm)/A(V)]

## (Re)Sampling Parameters
 3741.00                                 [l_ini (A)]
 7218.00                                 [l_fin (A)]
    1.00                                 [dl    (A)]     (OBS: dl_cushion =    50.00 A)

## Normalization info
 4020.00                                 [l_norm (A) - for base]
 4010.00                                 [llow_norm (A) - window for f_obs]
 4060.00                                 [lupp_norm (A) - window for f_obs]
5.445101E-17                             [fobs_norm (in input units)]

## S/N
 3691.00                                 [llow_SN (A) - window for S/N]
 7268.00                                 [lupp_SN (A) - window for S/N]
   4.215                                 [S/N in S/N window]
   2.949                                 [S/N in norm. window]
   0.110                                 [S/N_err in S/N window]
   0.077                                 [S/N_err in norm. window]
  1.0000                                 [fscale_chi2]

## etc...
    -2007539                             [idum_orig]
  2432                                   [NOl_eff]
  2423                                   [Nl_eff]
     9    NSIGMA                         [Ntot_cliped & clip_method]
  9742600                                [Nglobal_steps]
   7                                     [N_chains]
  28                                     [NEX0s_base = N_base in EX0s-fits]
 0   1   1       10   2.0   7.081E+03    [Clip-Bug, RC-Crash & Burn-In warning-flags, n_censored_weights, wei_nsig_threshold & wei_limit]
   203    202.414    201.675      0.739  [idt_all, wdt_TotTime, wdt_UsrTime & wdt_SysTime (sec)]

## Synthesis Results - Best model ##

 1.85353E-04                             [chi2/Nl_eff]
     8.78251                             [adev (%)]

   102.96718                             [sum-of-x (%)]
 8.34065E-17                             [Flux_tot (units of input spectrum!)]
 4.89662E-12                             [Mini_tot (???)]
 2.50768E-12                             [Mcor_tot (???)]

 -27.19                                  [v0_min  (km/s)]
 123.81                                  [vd_min  (km/s)]
 0.2957                                  [AV_min  (mag)]
 0.0000                                  [YAV_min (mag)]

# j     x_j(%)      Mini_j(%)     Mcor_j(%)     age_j(yr)     Z_j      (L/M)_j    YAV?  Mstars   component_j        a/Fe...       SSP_chi2r SSP_adev(%)   SSP_AV   SSP_x(%)
  1      0.0000     0.0000E+00    0.0000E+00    1.000000E+06  0.00400  1.094E-02    0   1.0000   age020_m42            0.0000     4.5366E-04    14.8399   4.0000    97.0842
  2      0.0000     0.0000E+00    0.0000E+00    3.160000E+06  0.00400  4.007E-02    0   0.9999   age045_m42            0.0000     3.8082E-04    14.7465   3.3651   100.9522
  3      0.0000     0.0000E+00    0.0000E+00    5.010000E+06  0.00400  2.539E-02    0   0.9488   age055_m42            0.0000     4.1074E-04    14.8973   3.6901    97.5645
  4      0.0000     0.0000E+00    0.0000E+00    6.610000E+06  0.00400  2.620E-02    0   0.9220   age061_m42            0.0000     3.9155E-04    14.9291   3.2956   101.1645
  5      0.0000     0.0000E+00    0.0000E+00    1.000000E+07  0.00400  1.322E-02    0   0.8862   age070_m42            0.0000     4.9171E-04    17.1379   3.0492   103.0954
  6      0.0000     0.0000E+00    0.0000E+00    1.445000E+07  0.00400  7.883E-03    0   0.8571   age078_m42            0.0000     5.0052E-04    17.1051   3.3769   100.1328
  7      0.0000     0.0000E+00    0.0000E+00    2.512000E+07  0.00400  5.251E-03    0   0.8174   age090_m42            0.0000     5.1181E-04    17.6427   2.9256   103.8325
  8      0.0000     0.0000E+00    0.0000E+00    4.000000E+07  0.00400  3.649E-03    0   0.7851   age104_m42            0.0000     4.8243E-04    17.1894   2.6904   104.9225
  9      0.0000     0.0000E+00    0.0000E+00    5.500000E+07  0.00400  3.098E-03    0   0.7629   age110_m42            0.0000     4.2779E-04    16.0379   2.8242   105.2298
 10      0.6075     4.5107E-03    6.3478E-03    1.015200E+08  0.00400  2.228E-03    0   0.7207   age116_m42            0.0000     3.9581E-04    15.3202   2.8307   105.7202
 11      0.0000     0.0000E+00    0.0000E+00    2.861200E+08  0.00400  1.093E-03    0   0.6648   age125_m42            0.0000     4.3140E-04    16.0249   2.2660   109.5865
 12      0.0000     0.0000E+00    0.0000E+00    5.088000E+08  0.00400  6.597E-04    0   0.6365   age130_m42            0.0000     3.6245E-04    14.6300   2.2313   110.8120
 13      1.5164     1.1766E-01    1.3321E-01    1.434000E+09  0.00400  2.132E-04    0   0.5798   age139_m42            0.0000     2.6683E-04    12.8721   1.2373   113.2199
 14      1.2063     3.3850E-01    3.5541E-01    4.250000E+09  0.00400  5.895E-05    0   0.5377   age158_m42            0.0000     1.9388E-04    10.6881   0.7704   108.4849
 15      5.2091     2.4551E+00    2.4986E+00    7.500000E+09  0.00400  3.510E-05    0   0.5212   age171_m42            0.0000     1.6752E-04     9.8064   0.5663   107.9656
 16      4.8105     3.9690E+00    3.9014E+00    1.300000E+10  0.00400  2.005E-05    0   0.5034   age193_m42            0.0000     1.5121E-04     9.1391   0.3909   107.5050
 17      2.9794     3.2319E+00    3.1346E+00    1.800000E+10  0.00400  1.525E-05    0   0.4967   age213_m42            0.0000     1.5718E-04     9.3192   0.3709   106.9686
 18      0.0000     0.0000E+00    0.0000E+00    1.000000E+06  0.00800  1.238E-02    0   1.0000   age020_m52            0.0000     4.5090E-04    14.8206   4.0000    97.0882
 19      0.0000     0.0000E+00    0.0000E+00    3.160000E+06  0.00800  3.074E-02    0   0.9966   age045_m52            0.0000     4.3434E-04    15.0068   4.0000    94.8115
 20      0.0000     0.0000E+00    0.0000E+00    5.010000E+06  0.00800  2.668E-02    0   0.9443   age055_m52            0.0000     4.2217E-04    15.1097   3.7753    96.6348
 21      0.0000     0.0000E+00    0.0000E+00    6.610000E+06  0.00800  2.136E-02    0   0.9177   age061_m52            0.0000     4.5197E-04    16.5756   2.5484   104.1354
 22      0.6070     8.2644E-04    1.4245E-03    1.000000E+07  0.00800  1.215E-02    0   0.8827   age070_m52            0.0000     5.4010E-04    17.9569   3.2381   102.7988
 23      0.0000     0.0000E+00    0.0000E+00    1.445000E+07  0.00800  8.717E-03    0   0.8552   age078_m52            0.0000     4.9564E-04    17.1033   3.3422   101.6232
 24      0.0000     0.0000E+00    0.0000E+00    2.512000E+07  0.00800  5.592E-03    0   0.8162   age090_m52            0.0000     5.1495E-04    17.6905   2.9859   105.2198
 25      0.0000     0.0000E+00    0.0000E+00    4.000000E+07  0.00800  3.896E-03    0   0.7841   age104_m52            0.0000     4.8362E-04    17.1720   2.8900   106.4487
 26      0.0000     0.0000E+00    0.0000E+00    1.015200E+08  0.00800  2.148E-03    0   0.7226   age116_m52            0.0000     4.2189E-04    15.9830   2.8092   106.6842
 27      0.0000     0.0000E+00    0.0000E+00    2.861200E+08  0.00800  9.925E-04    0   0.6683   age125_m52            0.0000     3.6313E-04    14.7844   2.2971   112.0093
 28      0.0000     0.0000E+00    0.0000E+00    9.047900E+08  0.00800  3.141E-04    0   0.6138   age135_m52            0.0000     2.4704E-04    12.2658   1.4603   117.6078
 29      0.9660     9.2959E-02    1.0624E-01    1.434000E+09  0.00800  1.719E-04    0   0.5853   age139_m52            0.0000     2.1672E-04    11.2840   0.8697   114.6643
 30      2.4793     5.2101E-01    5.6972E-01    2.500000E+09  0.00800  7.872E-05    0   0.5600   age150_m52            0.0000     1.4618E-04     9.1598   0.5708   111.5626
 31      2.0359     7.7673E-01    8.2295E-01    4.250000E+09  0.00800  4.336E-05    0   0.5426   age158_m52            0.0000     1.4759E-04     9.2490   0.5614   110.5547
 32      7.5855     3.9723E+00    4.1257E+00    6.250000E+09  0.00800  3.159E-05    0   0.5319   age166_m52            0.0000     1.1665E-04     8.1410   0.3381   111.0923
 33     22.0797     2.6837E+01    2.6585E+01    1.300000E+10  0.00800  1.361E-05    0   0.5073   age193_m52            0.0000     8.5164E-05     6.7585  -0.1592   110.9603
 34      7.8315     1.3105E+01    1.2769E+01    1.800000E+10  0.00800  9.886E-06    0   0.4990   age213_m52            0.0000     6.7529E-05     5.7797  -0.2903   111.0637
 35      0.0000     0.0000E+00    0.0000E+00    1.000000E+06  0.02000  1.544E-02    0   1.0000   age020_m62            0.0000     4.5182E-04    14.8319   4.0000    97.1109
 36      0.0000     0.0000E+00    0.0000E+00    3.160000E+06  0.02000  3.762E-02    0   0.9858   age045_m62            0.0000     4.4260E-04    14.9676   4.0000    95.3468
 37      0.6750     3.3879E-04    6.1800E-04    5.010000E+06  0.02000  3.296E-02    0   0.9342   age055_m62            0.0000     3.8876E-04    14.5427   3.6423    99.1962
 38      0.0000     0.0000E+00    0.0000E+00    8.710000E+06  0.02000  1.154E-02    0   0.8861   age067_m62            0.0000     8.5855E-04    23.0234   2.7502   105.5579
 39      0.0000     0.0000E+00    0.0000E+00    1.445000E+07  0.02000  7.663E-03    0   0.8472   age078_m62            0.0000     6.2298E-04    19.3720   2.9010   105.3333
 40      0.0000     0.0000E+00    0.0000E+00    2.512000E+07  0.02000  4.532E-03    0   0.8099   age090_m62            0.0000     6.4292E-04    19.6243   2.8936   105.1951
 41      0.4082     2.4711E-03    3.6647E-03    5.500000E+07  0.02000  2.733E-03    0   0.7595   age110_m62            0.0000     4.8280E-04    17.0264   2.8722   105.4486
 42      0.0000     0.0000E+00    0.0000E+00    1.609000E+08  0.02000  1.369E-03    0   0.6985   age120_m62            0.0000     4.0191E-04    15.5123   2.6785   109.4047
 43      0.0000     0.0000E+00    0.0000E+00    2.861200E+08  0.02000  9.013E-04    0   0.6714   age125_m62            0.0000     3.5460E-04    14.7034   2.4072   113.3144
 44      0.0000     0.0000E+00    0.0000E+00    5.088000E+08  0.02000  5.028E-04    0   0.6449   age130_m62            0.0000     2.6244E-04    12.6512   1.9947   117.1739
 45      0.0000     0.0000E+00    0.0000E+00    9.047900E+08  0.02000  2.428E-04    0   0.6179   age135_m62            0.0000     1.9105E-04    10.7844   1.3881   116.5269
 46      0.5514     7.2223E-02    8.3319E-02    1.434000E+09  0.02000  1.263E-04    0   0.5908   age139_m62            0.0000     1.5781E-04     9.6992   0.9276   114.5488
 47      4.5490     1.2573E+00    1.3928E+00    2.500000E+09  0.02000  5.985E-05    0   0.5673   age150_m62            0.0000     1.1587E-04     8.1529   0.5398   113.3324
 48      1.9631     9.9282E-01    1.0600E+00    4.250000E+09  0.02000  3.271E-05    0   0.5468   age158_m62            0.0000     7.7520E-05     6.4081   0.1967   113.0729
 49      2.0768     2.5262E+00    2.5487E+00    1.000000E+10  0.02000  1.360E-05    0   0.5167   age181_m62            0.0000     5.4839E-05     4.9943  -0.1916   113.7850
 50      4.6674     1.0838E+01    1.0609E+01    1.800000E+10  0.02000  7.124E-06    0   0.5013   age213_m62            0.0000     4.9441E-05     4.2933  -0.4353   113.8013
 51      1.2192     7.7813E-04    1.5191E-03    1.000000E+06  0.05000  2.592E-02    0   0.9998   age020_m72            0.0000     4.5940E-04    14.9987   4.0000    96.7843
 52      0.0000     0.0000E+00    0.0000E+00    3.160000E+06  0.05000  4.845E-02    0   0.9577   age045_m72            0.0000     4.1497E-04    14.6903   3.9054    95.7624
 53      0.0000     0.0000E+00    0.0000E+00    5.010000E+06  0.05000  3.072E-02    0   0.9147   age055_m72            0.0000     5.6846E-04    17.8685   3.4656   100.9724
 54      0.5878     6.6828E-04    1.1584E-03    6.610000E+06  0.05000  1.455E-02    0   0.8877   age061_m72            0.0000     1.1867E-03    25.5707   2.8041   108.3947
 55      0.0000     0.0000E+00    0.0000E+00    1.000000E+07  0.05000  9.074E-03    0   0.8524   age070_m72            0.0000     6.4072E-04    18.3433   3.6393   101.5779
 56      0.0000     0.0000E+00    0.0000E+00    2.512000E+07  0.05000  4.250E-03    0   0.7902   age090_m72            0.0000     5.7812E-04    17.9770   3.3386   103.5855
 57      0.0000     0.0000E+00    0.0000E+00    4.000000E+07  0.05000  3.087E-03    0   0.7618   age104_m72            0.0000     5.8841E-04    18.2301   3.1113   105.6773
 58      0.0000     0.0000E+00    0.0000E+00    1.015200E+08  0.05000  1.700E-03    0   0.7096   age116_m72            0.0000     4.5384E-04    16.5156   2.8329   109.0056
 59      0.0000     0.0000E+00    0.0000E+00    2.861200E+08  0.05000  7.384E-04    0   0.6633   age125_m72            0.0000     3.0674E-04    13.7665   2.2587   115.4867
 60      0.0000     0.0000E+00    0.0000E+00    5.088000E+08  0.05000  3.819E-04    0   0.6372   age130_m72            0.0000     2.0883E-04    11.4240   1.7339   117.6885
 61      0.1263     1.2462E-02    1.4868E-02    9.047900E+08  0.05000  1.676E-04    0   0.6110   age135_m72            0.0000     1.2334E-04     8.6800   1.0025   115.8991
 62      4.8097     9.0036E-01    1.0327E+00    1.434000E+09  0.05000  8.837E-05    0   0.5874   age139_m72            0.0000     1.0898E-04     7.9104   0.5258   115.4154
 63      5.0907     1.9895E+00    2.1747E+00    2.500000E+09  0.05000  4.233E-05    0   0.5598   age150_m72            0.0000     6.7898E-05     5.9198   0.1823   114.4856
 64     11.7526     1.3548E+01    1.3886E+01    6.250000E+09  0.05000  1.435E-05    0   0.5249   age166_m72            0.0000     4.9979E-05     4.5519  -0.3070   113.6357
 65      3.8460     9.7687E+00    9.6061E+00    1.300000E+10  0.05000  6.513E-06    0   0.5036   age193_m72            0.0000     5.3024E-05     4.2076  -0.6254   115.7563
 66      0.7299     2.6671E+00    2.5753E+00    1.800000E+10  0.05000  4.527E-06    0   0.4945   age213_m72            0.0000     6.1609E-05     4.5444  -0.8115   116.1565


## Synthesis Results - Average & Chains ##

# j      x_j: min, <> & last-chain-values for 1 ...  7 chains
  1      0.0000      0.0256      0.0000      0.0000      0.0000      0.0019      0.0589      0.0240      0.0000
  2      0.0000      0.2335      0.2127      0.2128      0.2330      0.1320      0.2141      0.2467      0.1989
  3      0.0000      0.0397      0.0693      0.0000      0.0438      0.0000      0.0990      0.0433      0.0000
  4      0.0000      0.1268      0.2592      0.1173      0.1029      0.0847      0.1566      0.0828      0.2391
  5      0.0000      0.0143      0.0000      0.0000      0.0000      0.0647      0.0171      0.0000      0.0000
  6      0.0000      0.0219      0.0000      0.0000      0.0000      0.0361      0.0711      0.0549      0.0000
  7      0.0000      0.0319      0.0384      0.0330      0.0412      0.0992      0.0438      0.0417      0.0000
  8      0.0000      0.0147      0.0000      0.0000      0.0000      0.0213      0.0000      0.0000      0.0423
  9      0.0000      0.0294      0.0238      0.0000      0.0575      0.0912      0.0000      0.0000      0.0000
 10      0.6075      0.4147      0.4280      0.4505      0.3807      0.4148      0.4017      0.4024      0.4070
 11      0.0000      0.0425      0.0586      0.0256      0.0000      0.1178      0.0000      0.0853      0.0059
 12      0.0000      0.0366      0.0000      0.0000      0.1478      0.0570      0.0233      0.0328      0.0328
 13      1.5164      1.2930      1.3044      1.2371      1.3277      1.3138      1.3777      1.3009      1.2757
 14      1.2063      0.7890      0.8710      0.8448      0.5855      0.7732      0.7900      1.0061      0.6084
 15      5.2091      5.5464      5.5410      5.4821      5.6269      5.3919      5.4123      5.5206      5.2198
 16      4.8105      4.0226      4.0058      4.0376      3.9848      4.7239      4.0696      4.5447      4.1871
 17      2.9794      2.8676      2.6924      2.7257      2.5122      2.6648      2.9757      2.5476      2.8767
 18      0.0000      0.0093      0.0303      0.0193      0.0000      0.0000      0.0179      0.0319      0.0261
 19      0.0000      0.0451      0.0929      0.0726      0.0490      0.0000      0.0416      0.0310      0.0381
 20      0.0000      0.0082      0.0000      0.0000      0.0866      0.0000      0.0000      0.0000      0.0117
 21      0.0000      0.0477      0.0311      0.1486      0.0000      0.0393      0.0695      0.0000      0.0889
 22      0.6070      0.5199      0.5353      0.5529      0.5186      0.5215      0.5374      0.5754      0.5082
 23      0.0000      0.0245      0.0000      0.0000      0.0740      0.0507      0.0000      0.0064      0.0000
 24      0.0000      0.0113      0.0000      0.0000      0.0000      0.0000      0.0000      0.0160      0.0202
 25      0.0000      0.0205      0.0000      0.0000      0.0078      0.0886      0.0208      0.0859      0.0000
 26      0.0000      0.0216      0.0287      0.0000      0.0000      0.0000      0.0000      0.0105      0.0000
 27      0.0000      0.0176      0.0071      0.0000      0.0085      0.0000      0.0245      0.0000      0.0000
 28      0.0000      0.2140      0.2134      0.2456      0.1729      0.2552      0.2153      0.2218      0.1916
 29      0.9660      0.8738      0.8874      0.8658      0.9084      0.8721      0.9114      0.7848      0.9125
 30      2.4793      1.5872      1.5608      1.6711      1.5072      1.7127      1.6626      1.6422      1.5689
 31      2.0359      2.6686      2.5856      2.5710      2.4600      3.0067      2.6225      2.6422      2.6182
 32      7.5855      7.2248      7.2291      7.2314      7.3698      7.1288      7.5075      7.5711      7.3489
 33     22.0797     21.6029     22.1924     21.8550     22.2340     21.6280     21.5746     21.2961     21.5950
 34      7.8315      8.6935      8.6518      8.7576      8.7306      8.5003      8.7155      8.6621      8.6384
 35      0.0000      0.0296      0.0755      0.0385      0.0946      0.0000      0.0468      0.0000      0.0382
 36      0.0000      0.0278      0.0379      0.0435      0.0436      0.0000      0.0059      0.0173      0.0000
 37      0.6750      0.3598      0.4109      0.3069      0.3586      0.3424      0.3778      0.3973      0.4072
 38      0.0000      0.0103      0.0284      0.0000      0.0000      0.0335      0.0620      0.0286      0.0815
 39      0.0000      0.2312      0.2526      0.2482      0.2138      0.2657      0.2046      0.2274      0.2361
 40      0.0000      0.0943      0.1214      0.0675      0.0727      0.1415      0.1467      0.1068      0.0724
 41      0.4082      0.3123      0.2571      0.2076      0.3295      0.2980      0.2738      0.2818      0.3151
 42      0.0000      0.0596      0.0469      0.0000      0.0325      0.0987      0.1549      0.0494      0.0000
 43      0.0000      0.0169      0.0000      0.0204      0.0000      0.0000      0.0000      0.0629      0.0161
 44      0.0000      0.1249      0.0671      0.2035      0.2081      0.0996      0.0598      0.1675      0.0432
 45      0.0000      0.0600      0.1142      0.1044      0.0367      0.0000      0.0503      0.0494      0.1202
 46      0.5514      0.3249      0.2768      0.2902      0.3074      0.3243      0.3064      0.4116      0.3808
 47      4.5490      4.2837      4.3765      4.2808      4.0092      4.0862      4.2978      4.1318      4.2231
 48      1.9631      2.4920      2.3887      2.6217      2.6408      2.2764      2.6701      2.4659      3.5072
 49      2.0768      3.0825      2.9496      3.2664      3.1368      3.0815      3.0799      3.0682      3.1592
 50      4.6674      5.1835      5.0583      4.9010      5.2236      4.8996      5.1227      4.8625      5.1432
 51      1.2192      1.1506      1.1363      1.1384      1.1209      1.1195      1.1982      1.0635      1.2390
 52      0.0000      0.0301      0.0128      0.0000      0.0000      0.0000      0.0240      0.0011      0.0788
 53      0.0000      0.0241      0.0266      0.0000      0.0473      0.0000      0.0340      0.0222      0.0380
 54      0.5878      0.5011      0.4519      0.5006      0.4256      0.5164      0.4364      0.4716      0.5383
 55      0.0000      0.0143      0.0000      0.0000      0.0126      0.0000      0.0000      0.0267      0.0000
 56      0.0000      0.0119      0.0089      0.0000      0.0000      0.0000      0.0459      0.0000      0.0000
 57      0.0000      0.0277      0.0588      0.1289      0.0149      0.0000      0.0348      0.0510      0.0000
 58      0.0000      0.0248      0.0104      0.0000      0.0000      0.0000      0.0444      0.0000      0.0000
 59      0.0000      0.0193      0.0059      0.0000      0.0000      0.0000      0.0000      0.0149      0.0426
 60      0.0000      0.0384      0.0583      0.0307      0.0448      0.0000      0.0165      0.1869      0.0745
 61      0.1263      0.3908      0.3690      0.3589      0.2662      0.5329      0.4364      0.3496      0.3194
 62      4.8097      4.7094      4.6324      4.8784      4.6126      4.6828      4.4604      4.7503      4.6242
 63      5.0907      4.4504      4.5217      4.3970      4.3389      4.8893      4.4064      4.5304      4.3787
 64     11.7526     11.1779     11.1454     11.1497     11.1241     11.0299     10.9463     10.9556     10.9094
 65      3.8460      3.9988      3.9893      4.0685      4.0536      4.0282      3.9911      3.9575      3.7731
 66      0.7299      0.6706      0.6484      0.5872      0.7148      0.6377      0.6795      0.9278      0.6996

# j      m_j: min, <> & last-chain-values for 1 ...  7 chains
  1  0.0000E+00  7.4194E-05  0.0000E+00  0.0000E+00  0.0000E+00  5.6160E-06  1.7095E-04  6.9902E-05  0.0000E+00
  2  0.0000E+00  1.8490E-04  1.6877E-04  1.6893E-04  1.8331E-04  1.0531E-04  1.6980E-04  1.9595E-04  1.5814E-04
  3  0.0000E+00  4.7117E-05  8.2365E-05  0.0000E+00  5.1584E-05  0.0000E+00  1.1759E-04  5.1513E-05  0.0000E+00
  4  0.0000E+00  1.4161E-04  2.9007E-04  1.3138E-04  1.1417E-04  9.5289E-05  1.7513E-04  9.2777E-05  2.6810E-04
  5  0.0000E+00  3.0512E-05  0.0000E+00  0.0000E+00  0.0000E+00  1.3867E-04  3.6524E-05  0.0000E+00  0.0000E+00
  6  0.0000E+00  7.5515E-05  0.0000E+00  0.0000E+00  0.0000E+00  1.2535E-04  2.4558E-04  1.9006E-04  0.0000E+00
  7  0.0000E+00  1.5744E-04  1.8984E-04  1.6321E-04  2.0220E-04  4.9385E-04  2.1688E-04  2.0678E-04  0.0000E+00
  8  0.0000E+00  1.0033E-04  0.0000E+00  0.0000E+00  0.0000E+00  1.4665E-04  0.0000E+00  0.0000E+00  2.8976E-04
  9  0.0000E+00  2.2962E-04  1.8633E-04  0.0000E+00  4.4661E-04  7.1832E-04  0.0000E+00  0.0000E+00  0.0000E+00
 10  6.3478E-03  4.2573E-03  4.4015E-03  4.6367E-03  3.8829E-03  4.2899E-03  4.1292E-03  4.1439E-03  4.1958E-03
 11  0.0000E+00  8.2120E-04  1.1330E-03  4.9508E-04  0.0000E+00  2.2901E-03  0.0000E+00  1.6509E-03  1.1486E-04
 12  0.0000E+00  1.1223E-03  0.0000E+00  0.0000E+00  4.4974E-03  1.7587E-03  7.1376E-04  1.0079E-03  1.0090E-03
 13  1.3321E-01  1.1160E-01  1.1279E-01  1.0705E-01  1.1385E-01  1.1423E-01  1.1906E-01  1.1262E-01  1.1056E-01
 14  3.5541E-01  2.2841E-01  2.5260E-01  2.4518E-01  1.6837E-01  2.2548E-01  2.2899E-01  2.9214E-01  1.7684E-01
 15  2.4986E+00  2.6139E+00  2.6160E+00  2.5902E+00  2.6344E+00  2.5597E+00  2.5538E+00  2.6096E+00  2.4701E+00
 16  3.9014E+00  3.2055E+00  3.1978E+00  3.2256E+00  3.1544E+00  3.7918E+00  3.2469E+00  3.6324E+00  3.3503E+00
 17  3.1346E+00  2.9643E+00  2.7881E+00  2.8248E+00  2.5798E+00  2.7749E+00  3.0798E+00  2.6415E+00  2.9860E+00
 18  0.0000E+00  2.3735E-05  7.7719E-05  4.9485E-05  0.0000E+00  0.0000E+00  4.5957E-05  8.2050E-05  6.7132E-05
 19  0.0000E+00  4.6426E-05  9.5774E-05  7.4876E-05  5.0102E-05  0.0000E+00  4.2903E-05  3.1998E-05  3.9393E-05
 20  0.0000E+00  9.1968E-06  0.0000E+00  0.0000E+00  9.6607E-05  0.0000E+00  0.0000E+00  0.0000E+00  1.3149E-05
 21  0.0000E+00  6.4990E-05  4.2515E-05  2.0315E-04  0.0000E+00  5.4001E-05  9.4913E-05  0.0000E+00  1.2175E-04
 22  1.4245E-03  1.1989E-03  1.2365E-03  1.2780E-03  1.1879E-03  1.2112E-03  1.2406E-03  1.3307E-03  1.1767E-03
 23  0.0000E+00  7.6356E-05  0.0000E+00  0.0000E+00  2.2887E-04  1.5916E-04  0.0000E+00  1.9852E-05  0.0000E+00
 24  0.0000E+00  5.2239E-05  0.0000E+00  0.0000E+00  0.0000E+00  0.0000E+00  0.0000E+00  7.4309E-05  9.3734E-05
 25  0.0000E+00  1.3108E-04  0.0000E+00  0.0000E+00  4.9603E-05  5.7032E-04  1.3307E-04  5.5015E-04  0.0000E+00
 26  0.0000E+00  2.3055E-04  3.0707E-04  0.0000E+00  0.0000E+00  0.0000E+00  0.0000E+00  1.1256E-04  0.0000E+00
 27  0.0000E+00  3.7657E-04  1.5145E-04  0.0000E+00  1.7988E-04  0.0000E+00  5.2389E-04  0.0000E+00  0.0000E+00
 28  0.0000E+00  1.3270E-02  1.3261E-02  1.5274E-02  1.0651E-02  1.5943E-02  1.3370E-02  1.3798E-02  1.1934E-02
 29  1.0624E-01  9.4428E-02  9.6069E-02  9.3802E-02  9.7519E-02  9.4929E-02  9.8616E-02  8.5067E-02  9.9019E-02
 30  5.6972E-01  3.5836E-01  3.5303E-01  3.7826E-01  3.3807E-01  3.8952E-01  3.7584E-01  3.7189E-01  3.5569E-01
 31  8.2295E-01  1.0599E+00  1.0287E+00  1.0237E+00  9.7060E-01  1.2029E+00  1.0428E+00  1.0526E+00  1.0441E+00
 32  4.1257E+00  3.8609E+00  3.8701E+00  3.8743E+00  3.9125E+00  3.8375E+00  4.0169E+00  4.0582E+00  3.9434E+00
 33  2.6585E+01  2.5557E+01  2.6301E+01  2.5921E+01  2.6130E+01  2.5774E+01  2.5554E+01  2.5270E+01  2.5652E+01
 34  1.2769E+01  1.3927E+01  1.3885E+01  1.4065E+01  1.3895E+01  1.3717E+01  1.3979E+01  1.3919E+01  1.3896E+01
 35  0.0000E+00  6.0881E-05  1.5546E-04  7.9303E-05  1.9308E-04  0.0000E+00  9.6374E-05  0.0000E+00  7.8866E-05
 36  0.0000E+00  2.3091E-05  3.1546E-05  3.6263E-05  3.6041E-05  0.0000E+00  4.8805E-06  1.4466E-05  0.0000E+00
 37  6.1800E-04  3.2362E-04  3.7031E-04  2.7678E-04  3.2044E-04  3.1025E-04  3.4025E-04  3.5851E-04  3.6777E-04
 38  0.0000E+00  2.5222E-05  6.9303E-05  0.0000E+00  0.0000E+00  8.2144E-05  1.5118E-04  6.9823E-05  1.9948E-04
 39  0.0000E+00  8.1134E-04  8.8782E-04  8.7321E-04  7.4542E-04  9.3927E-04  7.1879E-04  8.0031E-04  8.3177E-04
 40  0.0000E+00  5.3497E-04  6.9003E-04  3.8381E-04  4.0981E-04  8.0824E-04  8.3317E-04  6.0739E-04  4.1261E-04
 41  3.6647E-03  2.7547E-03  2.2720E-03  1.8353E-03  2.8871E-03  2.6480E-03  2.4183E-03  2.4929E-03  2.7906E-03
 42  0.0000E+00  9.6484E-04  7.6128E-04  0.0000E+00  5.2244E-04  1.6096E-03  2.5110E-03  8.0197E-04  0.0000E+00
 43  0.0000E+00  3.9846E-04  0.0000E+00  4.8281E-04  0.0000E+00  0.0000E+00  0.0000E+00  1.4913E-03  3.8110E-04
 44  0.0000E+00  5.0844E-03  2.7375E-03  8.3052E-03  8.4143E-03  4.0835E-03  2.4384E-03  6.8403E-03  1.7659E-03
 45  0.0000E+00  4.8498E-03  9.2407E-03  8.4556E-03  2.9432E-03  0.0000E+00  4.0670E-03  4.0024E-03  9.7447E-03
 46  8.3319E-02  4.8238E-02  4.1166E-02  4.3199E-02  4.5332E-02  4.8506E-02  4.5545E-02  6.1294E-02  5.6765E-02
 47  1.3928E+00  1.2887E+00  1.3190E+00  1.2911E+00  1.1982E+00  1.2383E+00  1.2945E+00  1.2467E+00  1.2757E+00
 48  1.0600E+00  1.3222E+00  1.2696E+00  1.3945E+00  1.3919E+00  1.2166E+00  1.4184E+00  1.3122E+00  1.8684E+00
 49  2.5487E+00  3.7170E+00  3.5630E+00  3.9487E+00  3.7576E+00  3.7429E+00  3.7184E+00  3.7109E+00  3.8251E+00
 50  1.0609E+01  1.1577E+01  1.1317E+01  1.0974E+01  1.1590E+01  1.1023E+01  1.1455E+01  1.0893E+01  1.1534E+01
 51  1.5191E-03  1.4087E-03  1.3935E-03  1.3972E-03  1.3632E-03  1.3806E-03  1.4686E-03  1.3059E-03  1.5231E-03
 52  0.0000E+00  1.8855E-05  8.0273E-06  0.0000E+00  0.0000E+00  0.0000E+00  1.5072E-05  6.8499E-07  4.9619E-05
 53  0.0000E+00  2.2748E-05  2.5181E-05  0.0000E+00  4.4436E-05  0.0000E+00  3.2198E-05  2.1073E-05  3.6035E-05
 54  1.1584E-03  9.7041E-04  8.7659E-04  9.7190E-04  8.1867E-04  1.0073E-03  8.4602E-04  9.1603E-04  1.0466E-03
 55  0.0000E+00  4.2596E-05  0.0000E+00  0.0000E+00  3.7207E-05  0.0000E+00  0.0000E+00  7.9985E-05  0.0000E+00
 56  0.0000E+00  7.0323E-05  5.2645E-05  0.0000E+00  0.0000E+00  0.0000E+00  2.7148E-04  0.0000E+00  0.0000E+00
 57  0.0000E+00  2.1677E-04  4.6173E-04  1.0124E-03  1.1618E-04  0.0000E+00  2.7312E-04  4.0088E-04  0.0000E+00
 58  0.0000E+00  3.2893E-04  1.3737E-04  0.0000E+00  0.0000E+00  0.0000E+00  5.8877E-04  0.0000E+00  0.0000E+00
 59  0.0000E+00  5.4926E-04  1.6882E-04  0.0000E+00  0.0000E+00  0.0000E+00  0.0000E+00  4.2514E-04  1.2183E-03
 60  0.0000E+00  2.0357E-03  3.0941E-03  1.6281E-03  2.3553E-03  0.0000E+00  8.7748E-04  9.9287E-03  3.9606E-03
 61  1.4868E-02  4.5220E-02  4.2772E-02  4.1628E-02  3.0595E-02  6.2105E-02  5.0560E-02  4.0575E-02  3.7107E-02
 62  1.0327E+00  9.9352E-01  9.7901E-01  1.0318E+00  9.6670E-01  9.9515E-01  9.4214E-01  1.0052E+00  9.7956E-01
 63  2.1747E+00  1.8680E+00  1.9013E+00  1.8503E+00  1.8092E+00  2.0672E+00  1.8517E+00  1.9073E+00  1.8454E+00
 64  1.3886E+01  1.2977E+01  1.2962E+01  1.2977E+01  1.2830E+01  1.2899E+01  1.2724E+01  1.2757E+01  1.2717E+01
 65  9.6061E+00  9.8133E+00  9.8074E+00  1.0010E+01  9.8824E+00  9.9578E+00  9.8063E+00  9.7413E+00  9.2976E+00
 66  2.5753E+00  2.3248E+00  2.2518E+00  2.0408E+00  2.4617E+00  2.2271E+00  2.3585E+00  3.2264E+00  2.4355E+00

# AV, chi2 & Mass for <> & i_chain = 1 ...  7 solutions
AV       0.2957      0.2928      0.2931      0.2905      0.2928      0.2933      0.2931      0.2947      0.2934
chi2 1.8535E-04  1.3367E-04  1.3374E-04  1.3455E-04  1.4681E-04  1.2973E-04  1.3386E-04  1.2775E-04  1.3059E-04
Mass 2.5077E-12  2.5423E-12  2.5388E-12  2.5280E-12  2.5592E-12  2.5253E-12  2.5402E-12  2.5411E-12  2.5338E-12
 -27.19                                  [v0_min (km/s) before EX0s...]
 123.81                                  [vd_min (km/s) before EX0s...]


## Synthetic spectrum (Best Model) ##l_obs f_obs f_syn wei
 3478    [Nl_obs]
 3741.00    0.36984   0.56390    0.000
 3742.00    0.33970   0.54081    0.000
 3743.00    0.29993   0.50429    0.000
 3744.00    0.28841   0.46596    0.000
 3745.00    0.29336   0.43216    0.171
 3746.00    0.33237   0.40349    0.167
 3747.00    0.38867   0.37873    0.157
 3748.00    0.41096   0.36528    0.182
 3749.00    0.41830   0.37570    0.247
 3750.00    0.50666   0.41547    0.235
 3751.00    0.62560   0.47595    0.196
 3752.00    0.65933   0.54068    0.174
 3753.00    0.66574   0.59520    0.157
 3754.00    0.64507   0.62723    0.151
 3755.00    0.61715   0.62690    0.149
 3756.00    0.60461   0.59381    0.144
 3757.00    0.59545   0.54569    0.139
 3758.00    0.53695   0.50982    0.154
 3759.00    0.46983   0.50100    0.177
 3760.00    0.44543   0.51346    0.268
 3761.00    0.42671   0.53093    0.598
 3762.00    0.50279   0.54154    0.303
 3763.00    0.58778   0.54516    0.190
 3764.00    0.57786   0.54498    0.166
 3765.00    0.56247   0.54056    0.149
 3766.00    0.52709   0.53449    0.163
 3767.00    0.49144   0.53266    0.182
 3768.00    0.48011   0.53780    0.173
 3769.00    0.46902   0.54918    0.165
 3770.00    0.46381   0.56704    0.160
 3771.00    0.45987   0.59087    0.156
 3772.00    0.47262   0.61597    0.153
 3773.00    0.48872   0.63526    0.150
 3774.00    0.53421   0.64559    0.146
 3775.00    0.56634   0.65104    0.145
 3776.00    0.51173   0.65754    0.152
 3777.00    0.47876   0.66841    0.159
 3778.00    0.55528   0.68470    0.161
 3779.00    0.62089   0.70367    0.163
 3780.00    0.64182   0.72019    0.165
 3781.00    0.64964   0.73086    0.164
 3782.00    0.61297   0.73420    0.156
 3783.00    0.57464   0.72747    0.149
 3784.00    0.53159   0.70498    0.142
 3785.00    0.50294   0.66621    0.139
 3786.00    0.50950   0.62164    0.144
 3787.00    0.49971   0.58421    0.153
 3788.00    0.45545   0.56240    0.172
 3789.00    0.43449   0.55704    0.175
 3790.00    0.45618   0.56193    0.149
 3791.00    0.48123   0.56574    0.137
 3792.00    0.51164   0.55915    0.139
 3793.00    0.52776   0.54075    0.143
 3794.00    0.52381   0.51622    0.152
 3795.00    0.52029   0.49180    0.152
 3796.00    0.51730   0.47019    0.141
 3797.00    0.50044   0.45691    0.145
 3798.00    0.46847   0.46151    0.167
 3799.00    0.46748   0.48956    0.178
 3800.00    0.49626   0.53564    0.173
 3801.00    0.50243   0.58704    0.168
 3802.00    0.48944   0.63134    0.162
 3803.00    0.47195   0.65924    0.158
 3804.00    0.45110   0.66738    0.155
 3805.00    0.46873   0.65935    0.151
 3806.00    0.51159   0.64717    0.146
 3807.00    0.52211   0.64502    0.147
 3808.00    0.51407   0.65673    0.152
 3809.00    0.49294   0.67310    0.157
 3810.00    0.46526   0.67924    0.164
 3811.00    0.41838   0.66473    0.169
 3812.00    0.36321   0.63063    0.174
 3813.00    0.39295   0.58873    0.155
 3814.00    0.45419   0.55307    0.134
 3815.00    0.47376   0.53394    0.133
 3816.00    0.48023   0.53096    0.136
 3817.00    0.44331   0.53120    0.166
 3818.00    0.39501   0.52198    0.226
 3819.00    0.40354   0.50394    0.185
 3820.00    0.42425   0.49005    0.145
 3821.00    0.38656   0.48782    0.136
 3822.00    0.33896   0.48875    0.131
 3823.00    0.34230   0.47949    0.134
 3824.00    0.35218   0.45854    0.139
 3825.00    0.37676   0.43630    0.137
 3826.00    0.40266   0.42368    0.135
 3827.00    0.34716   0.42259    0.156
 3828.00    0.28729   0.42749    0.189
 3829.00    0.26811   0.43025    0.158
 3830.00    0.25033   0.42340    0.135
 3831.00    0.28179   0.40545    0.130
 3832.00    0.31283   0.38372    0.126
 3833.00    0.33471   0.36844    0.128
 3834.00    0.35483   0.36577    0.130
 3835.00    0.35309   0.37285    0.134
 3836.00    0.35131   0.38081    0.140
 3837.00    0.34911   0.38498    0.170
 3838.00    0.34916   0.38949    0.202
 3839.00    0.36343   0.40256    0.161
 3840.00    0.37991   0.43090    0.136
 3841.00    0.40733   0.47316    0.130
 3842.00    0.43088   0.51843    0.127
 3843.00    0.43895   0.55578    0.136
 3844.00    0.43965   0.57971    0.145
 3845.00    0.41584   0.59206    0.152
 3846.00    0.40626   0.59755    0.158
 3847.00    0.43667   0.59673    0.000
 3848.00    0.45834   0.58954    0.000
 3849.00    0.45902   0.58121    0.000
 3850.00    0.45987   0.57943    0.000
 3851.00    0.46106   0.58470    0.000
 3852.00    0.47198   0.58945    0.000
 3853.00    0.50046   0.58645    0.000
 3854.00    0.49309   0.57409    0.000
 3855.00    0.42922   0.55617    0.000
 3856.00    0.39698   0.53679    0.000
 3857.00    0.40852   0.51624    0.000
 3858.00    0.42109   0.49822    0.000
 3859.00    0.43490   0.49268    0.000
 3860.00    0.46289   0.50798    0.000
 3861.00    0.50612   0.54139    0.000
 3862.00    0.53876   0.57792    0.000
 3863.00    0.56137   0.60234    0.000
 3864.00    0.54669   0.60999    0.000
 3865.00    0.50085   0.60664    0.000
 3866.00    0.47870   0.59954    0.000
 3867.00    0.47398   0.59065    0.000
 3868.00    0.48903   0.57746    0.000
 3869.00    0.51687   0.55783    0.000
 3870.00    0.51636   0.53598    0.000
 3871.00    0.49983   0.52171    0.000
 3872.00    0.49250   0.52517    0.000
 3873.00    0.48971   0.54676    0.000
 3874.00    0.49018   0.57335    0.000
 3875.00    0.49204   0.58742    0.000
 3876.00    0.49195   0.58075    0.000
 3877.00    0.49115   0.56078    0.000
 3878.00    0.48690   0.54381    0.000
 3879.00    0.48159   0.53720    0.000
 3880.00    0.43994   0.53703    0.000
 3881.00    0.38896   0.53888    0.149
 3882.00    0.41763   0.54210    0.143
 3883.00    0.46296   0.54373    0.134
 3884.00    0.50777   0.53533    0.152
 3885.00    0.55250   0.51462    0.182
 3886.00    0.53797   0.49096    0.166
 3887.00    0.51610   0.47756    0.147
 3888.00    0.54702   0.48397    0.138
 3889.00    0.58246   0.51213    0.131
 3890.00    0.56469   0.55454    0.144
 3891.00    0.54427   0.59845    0.161
 3892.00    0.49573   0.63058    0.148
 3893.00    0.44828   0.64591    0.136
 3894.00    0.50080   0.64935    0.136
 3895.00    0.55176   0.65102    0.135
 3896.00    0.57090   0.65545    0.138
 3897.00    0.58928   0.65950    0.141
 3898.00    0.59872   0.66169    0.137
 3899.00    0.60984   0.66389    0.135
 3900.00    0.63458   0.66845    0.144
 3901.00    0.66133   0.67098    0.152
 3902.00    0.70037   0.66656    0.155
 3903.00    0.71081   0.65571    0.151
 3904.00    0.58357   0.64272    0.125
 3905.00    0.49401   0.63818    0.111
 3906.00    0.55198   0.65028    0.118
 3907.00    0.59650   0.67754    0.124
 3908.00    0.59718   0.71118    0.126
 3909.00    0.61083   0.74045    0.129
 3910.00    0.66022   0.76077    0.135
 3911.00    0.70810   0.77184    0.140
 3912.00    0.75246   0.77381    0.142
 3913.00    0.79254   0.76819    0.143
 3914.00    0.82390   0.75712    0.146
 3915.00    0.80591   0.74195    0.149
 3916.00    0.70026   0.72414    0.154
 3917.00    0.64502   0.70247    0.155
 3918.00    0.66810   0.67607    0.148
 3919.00    0.66671   0.64761    0.143
 3920.00    0.63192   0.62363    0.141
 3921.00    0.60019   0.61065    0.140
 3922.00    0.57214   0.60822    0.141
 3923.00    0.56958   0.60895    0.141
 3924.00    0.59403   0.60105    0.140
 3925.00    0.56311   0.57733    0.140
 3926.00    0.48049   0.53720    0.140
 3927.00    0.46471   0.48518    0.139
 3928.00    0.50398   0.42876    0.136
 3929.00    0.50476   0.37334    0.136
 3930.00    0.47764   0.32282    0.139
 3931.00    0.43342   0.28023    0.140
 3932.00    0.37830   0.24945    0.141
 3933.00    0.37217   0.23576    0.142
 3934.00    0.39330   0.24325    0.142
 3935.00    0.36625   0.27249    0.137
 3936.00    0.31588   0.31926    0.129
 3937.00    0.38204   0.37596    0.129
 3938.00    0.49693   0.43359    0.131
 3939.00    0.57595   0.48324    0.139
 3940.00    0.64215   0.51873    0.150
 3941.00    0.62860   0.53984    0.149
 3942.00    0.59095   0.55217    0.143
 3943.00    0.58989   0.56598    0.141
 3944.00    0.59803   0.59008    0.139
 3945.00    0.61765   0.62301    0.138
 3946.00    0.63962   0.65520    0.136
 3947.00    0.62220   0.68023    0.137
 3948.00    0.59847   0.69969    0.139
 3949.00    0.71687   0.71726    0.146
 3950.00    0.85224   0.73215    0.155
 3951.00    0.81282   0.74107    0.157
 3952.00    0.75916   0.74587    0.158
 3953.00    0.75788   0.74986    0.154
 3954.00    0.75900   0.75037    0.150
 3955.00    0.78060   0.74417    0.146
 3956.00    0.80090   0.73316    0.141
 3957.00    0.73968   0.72085    0.146
 3958.00    0.68035   0.70468    0.151
 3959.00    0.65679   0.67512    0.147
 3960.00    0.62944   0.62748    0.000
 3961.00    0.55935   0.57020    0.000
 3962.00    0.49370   0.51544    0.000
 3963.00    0.46297   0.46708    0.000
 3964.00    0.43003   0.41987    0.000
 3965.00    0.38392   0.36810    0.000
 3966.00    0.34442   0.31491    0.000
 3967.00    0.33592   0.27131    0.000
 3968.00    0.33914   0.24946    0.000
 3969.00    0.38723   0.25596    0.000
 3970.00    0.42546   0.28907    0.000
 3971.00    0.43222   0.34099    0.000
 3972.00    0.46598   0.40251    0.000
 3973.00    0.57288   0.46684    0.000
 3974.00    0.66795   0.53028    0.000
 3975.00    0.73552   0.59025    0.000
 3976.00    0.78043   0.64628    0.000
 3977.00    0.77985   0.69827    0.000
 3978.00    0.80385   0.74413    0.000
 3979.00    0.87088   0.77945    0.000
 3980.00    0.90935   0.79948    0.000
 3981.00    0.90410   0.80577    0.150
 3982.00    0.89109   0.80665    0.152
 3983.00    0.86763   0.81055    0.147
 3984.00    0.86582   0.82172    0.144
 3985.00    0.88965   0.83790    0.144
 3986.00    0.92730   0.85524    0.144
 3987.00    0.97939   0.87093    0.145
 3988.00    0.99030   0.88161    0.146
 3989.00    0.96329   0.88849    0.147
 3990.00    0.98691   0.89520    0.149
 3991.00    1.05164   0.90308    0.153
 3992.00    1.04174   0.90962    0.152
 3993.00    0.97853   0.90847    0.148
 3994.00    0.91787   0.89770    0.144
 3995.00    0.85881   0.88154    0.140
 3996.00    0.82794   0.86897    0.139
 3997.00    0.81251   0.86952    0.138
 3998.00    0.82809   0.88690    0.139
 3999.00    0.85844   0.91502    0.139
 4000.00    0.92642   0.94222    0.144
 4001.00    1.00986   0.95805    0.151
 4002.00    1.08418   0.95540    0.152
 4003.00    1.15530   0.93292    0.151
 4004.00    1.12024   0.89921    0.153
 4005.00    1.05371   0.87325    0.155
 4006.00    0.96857   0.87064    0.150
 4007.00    0.87885   0.89136    0.144
 4008.00    0.93865   0.92176    0.146
 4009.00    1.02818   0.94755    0.150
 4010.00    1.06836   0.96380    0.151
 4011.00    1.10088   0.97275    0.151
 4012.00    1.03338   0.97914    0.146
 4013.00    0.95438   0.98502    0.140
 4014.00    0.89756   0.99065    0.140
 4015.00    0.84246   0.99397    0.140
 4016.00    0.91960   0.99419    0.147
 4017.00    1.00231   0.99492    0.155
 4018.00    1.02618   0.99861    0.154
 4019.00    1.04901   1.00284    0.153
 4020.00    1.04966   1.00336    0.148
 4021.00    1.05032   0.99768    0.144
 4022.00    1.05114   0.98839    0.142
 4023.00    1.05113   0.98056    0.141
 4024.00    1.04232   0.98064    0.144
 4025.00    1.03489   0.99156    0.147
 4026.00    1.03797   1.00779    0.145
 4027.00    1.03329   1.01618    0.144
 4028.00    0.98383   1.00265    0.152
 4029.00    0.94141   0.96356    0.157
 4030.00    0.93128   0.91181    0.150
 4031.00    0.91892   0.86677    0.144
 4032.00    0.89823   0.84365    0.141
 4033.00    0.89166   0.84921    0.137
 4034.00    0.92936   0.88072    0.136
 4035.00    0.96156   0.93032    0.136
 4036.00    0.97910   0.98414    0.138
 4037.00    1.00000   1.02579    0.141
 4038.00    1.02854   1.04522    0.145
 4039.00    1.04549   1.04301    0.148
 4040.00    1.03951   1.02770    0.147
 4041.00    1.00865   1.00451    0.146
 4042.00    0.93491   0.96878    0.142
 4043.00    0.90521   0.91712    0.140
 4044.00    0.94192   0.86114    0.139
 4045.00    0.94180   0.82734    0.140
 4046.00    0.89285   0.83650    0.142
 4047.00    0.91701   0.88302    0.146
 4048.00    1.02651   0.94270    0.151
 4049.00    1.09438   0.99094    0.154
 4050.00    1.11941   1.01561    0.155
 4051.00    1.10838   1.01733    0.152
 4052.00    1.06461   1.00276    0.146
 4053.00    1.03850   0.97998    0.143
 4054.00    1.02653   0.95665    0.142
 4055.00    0.98639   0.93767    0.141
 4056.00    0.92640   0.92445    0.141
 4057.00    0.93496   0.92029    0.142
 4058.00    0.98584   0.92677    0.144
 4059.00    0.98699   0.93773    0.148
 4060.00    0.96130   0.93946    0.153
 4061.00    0.96495   0.92041    0.152
 4062.00    0.98236   0.88615    0.148
 4063.00    0.97898   0.85813    0.147
 4064.00    0.96720   0.85428    0.146
 4065.00    0.93470   0.87404    0.146
 4066.00    0.89505   0.90601    0.146
 4067.00    0.87164   0.93753    0.145
 4068.00    0.85294   0.95900    0.144
 4069.00    0.86994   0.96347    0.144
 4070.00    0.89552   0.95144    0.145
 4071.00    0.93448   0.93633    0.147
 4072.00    0.97602   0.93157    0.150
 4073.00    0.99214   0.93418    0.147
 4074.00    1.00442   0.92931    0.143
 4075.00    0.97840   0.90728    0.144
 4076.00    0.94815   0.87876    0.145
 4077.00    0.92582   0.86692    0.144
 4078.00    0.90408   0.88572    0.143
 4079.00    0.89224   0.92983    0.144
 4080.00    0.88077   0.97840    0.144
 4081.00    0.95705   1.00966    0.147
 4082.00    1.03401   1.01653    0.149
 4083.00    1.11865   1.00837    0.148
 4084.00    1.19807   1.00235    0.147
 4085.00    1.19146   1.01183    0.148
 4086.00    1.17935   1.03788    0.148
 4087.00    1.11059   1.07005    0.146
 4088.00    1.04887   1.09430    0.144
 4089.00    1.03883   1.10198    0.142
 4090.00    1.03636   1.09435    0.140
 4091.00    1.07628   1.07850    0.138
 4092.00    1.10634   1.06093    0.000
 4093.00    1.09223   1.04063    0.000
 4094.00    1.07917   1.01318    0.000
 4095.00    1.06997   0.97952    0.000
 4096.00    1.04217   0.94431    0.000
 4097.00    0.95720   0.91112    0.000
 4098.00    0.89399   0.87724    0.000
 4099.00    0.88763   0.83851    0.000
 4100.00    0.87768   0.80068    0.000
 4101.00    0.85965   0.78011    0.000
 4102.00    0.85701   0.78949    0.000
 4103.00    0.88429   0.82784    0.000
 4104.00    0.92000   0.88135    0.000
 4105.00    0.97003   0.93197    0.000
 4106.00    1.02044   0.96732    0.000
 4107.00    1.07144   0.98385    0.000
 4108.00    1.10614   0.98444    0.000
 4109.00    1.11958   0.97788    0.000
 4110.00    1.10536   0.97421    0.000
 4111.00    1.05930   0.97987    0.000
 4112.00    1.04664   0.99615    0.000
 4113.00    1.06787   1.01767    0.133
 4114.00    1.09939   1.03664    0.134
 4115.00    1.14013   1.04595    0.137
 4116.00    1.14228   1.04147    0.139
 4117.00    1.11397   1.02536    0.139
 4118.00    1.07771   1.00627    0.137
 4119.00    1.03595   0.99347    0.133
 4120.00    0.98965   0.99015    0.132
 4121.00    0.94060   0.99457    0.133
 4122.00    0.97442   1.00279    0.135
 4123.00    1.05227   1.01279    0.138
 4124.00    1.08788   1.02150    0.140
 4125.00    1.10403   1.02343    0.142
 4126.00    1.08832   1.01587    0.143
 4127.00    1.05996   1.00070    0.143
 4128.00    0.97274   0.98278    0.140
 4129.00    0.86559   0.96371    0.136
 4130.00    0.90187   0.94276    0.137
 4131.00    0.97897   0.92192    0.139
 4132.00    0.96877   0.91014    0.137
 4133.00    0.93807   0.91548    0.133
 4134.00    0.97433   0.94104    0.135
 4135.00    1.02323   0.97848    0.138
 4136.00    1.02519   1.01497    0.141
 4137.00    1.02030   1.04276    0.144
 4138.00    1.08052   1.05586    0.144
 4139.00    1.14766   1.05115    0.144
 4140.00    1.10149   1.02531    0.139
 4141.00    1.04749   0.98022    0.135
 4142.00    1.07891   0.93154    0.140
 4143.00    1.11328   0.90174    0.147
 4144.00    1.05965   0.90378    0.144
 4145.00    1.00787   0.93145    0.142
 4146.00    1.02254   0.96507    0.144
 4147.00    1.03262   0.98626    0.146
 4148.00    0.97191   0.99005    0.140
 4149.00    0.92105   0.98330    0.136
 4150.00    0.96743   0.97402    0.139
 4151.00    0.99743   0.96583    0.142
 4152.00    0.91122   0.95891    0.140
 4153.00    0.84703   0.95167    0.138
 4154.00    0.90306   0.94687    0.138
 4155.00    0.95826   0.94796    0.138
 4156.00    1.00985   0.95846    0.138
 4157.00    1.03991   0.97813    0.138
 4158.00    0.99253   1.00220    0.138
 4159.00    0.95630   1.02575    0.136
 4160.00    0.95370   1.04484    0.132
 4161.00    0.96676   1.05902    0.130
 4162.00    1.02003   1.06654    0.133
 4163.00    1.06333   1.06543    0.134
 4164.00    1.08459   1.05520    0.133
 4165.00    1.08974   1.03822    0.132
 4166.00    1.06403   1.02130    0.130
 4167.00    1.05099   1.01064    0.129
 4168.00    1.05914   1.00486    0.131
 4169.00    1.04029   0.99623    0.130
 4170.00    0.98187   0.97641    0.126
 4171.00    0.94323   0.94498    0.125
 4172.00    0.93005   0.91468    0.126
 4173.00    0.93584   0.89888    0.129
 4174.00    0.96314   0.90123    0.135
 4175.00    0.99990   0.91444    0.136
 4176.00    1.04611   0.92849    0.132
 4177.00    1.06425   0.94048    0.132
 4178.00    1.05760   0.95210    0.133
 4179.00    1.06479   0.96296    0.131
 4180.00    1.08274   0.97088    0.127
 4181.00    1.06727   0.97587    0.125
 4182.00    1.02893   0.98147    0.126
 4183.00    1.00079   0.98990    0.126
 4184.00    0.97877   0.99768    0.124
 4185.00    1.00140   0.99684    0.125
 4186.00    1.04738   0.98750    0.126
 4187.00    1.10380   0.97918    0.127
 4188.00    1.16495   0.98004    0.126
 4189.00    1.16693   0.99171    0.127
 4190.00    1.14581   1.00884    0.128
 4191.00    1.11431   1.02578    0.127
 4192.00    1.07935   1.03754    0.127
 4193.00    1.07817   1.03733    0.125
 4194.00    1.08639   1.02019    0.124
 4195.00    1.05793   0.98832    0.124
 4196.00    1.02106   0.95237    0.124
 4197.00    0.99633   0.92391    0.125
 4198.00    0.97382   0.90917    0.127
 4199.00    0.98813   0.90608    0.125
 4200.00    1.00763   0.90986    0.122
 4201.00    1.01229   0.91903    0.122
 4202.00    1.01544   0.93384    0.121
 4203.00    1.01238   0.95502    0.121
 4204.00    1.00891   0.98252    0.120
 4205.00    1.03830   1.01209    0.120
 4206.00    1.06870   1.03844    0.120
 4207.00    1.09386   1.05806    0.123
 4208.00    1.11696   1.06787    0.126
 4209.00    1.07930   1.06990    0.124
 4210.00    1.04625   1.06857    0.122
 4211.00    1.08038   1.06433    0.122
 4212.00    1.10725   1.05369    0.122
 4213.00    1.06532   1.03383    0.124
 4214.00    1.03035   1.01047    0.126
 4215.00    1.04315   0.99965    0.125
 4216.00    1.06589   1.01255    0.124
 4217.00    1.14145   1.04565    0.124
 4218.00    1.19682   1.08461    0.125
 4219.00    1.16600   1.11173    0.126
 4220.00    1.12525   1.11557    0.126
 4221.00    1.04959   1.09150    0.124
 4222.00    0.97998   1.03971    0.122
 4223.00    0.92835   0.96520    0.124
 4224.00    0.89513   0.88181    0.124
 4225.00    0.90841   0.81236    0.123
 4226.00    0.93711   0.78292    0.122
 4227.00    0.99933   0.80746    0.125
 4228.00    1.06078   0.87478    0.126
 4229.00    1.12082   0.95602    0.124
 4230.00    1.13292   1.01919    0.122
 4231.00    1.06607   1.04736    0.119
 4232.00    1.04276   1.04598    0.118
 4233.00    1.08228   1.02906    0.122
 4234.00    1.09824   1.00820    0.123
 4235.00    1.08428   0.99291    0.122
 4236.00    1.08921   0.98746    0.121
 4237.00    1.11527   0.99147    0.118
 4238.00    1.13600   1.00550    0.118
 4239.00    1.15146   1.02732    0.120
 4240.00    1.11624   1.05326    0.120
 4241.00    1.03692   1.07990    0.116
 4242.00    1.08499   1.10513    0.116
 4243.00    1.23075   1.12470    0.120
 4244.00    1.21321   1.13155    0.121
 4245.00    1.08563   1.12114    0.120
 4246.00    1.03930   1.09273    0.120
 4247.00    1.04094   1.05414    0.122
 4248.00    1.05692   1.01768    0.125
 4249.00    1.08029   0.99318    0.129
 4250.00    1.10053   0.98547    0.129
 4251.00    1.11938   0.98966    0.128
 4252.00    1.13880   0.99670    0.127
 4253.00    1.15844   1.00207    0.127
 4254.00    1.11778   1.00806    0.124
 4255.00    1.05747   1.01946    0.120
 4256.00    0.99331   1.03221    0.118
 4257.00    0.92810   1.03353    0.117
 4258.00    0.97427   1.01779    0.120
 4259.00    1.04541   0.99514    0.123
 4260.00    1.12625   0.98790    0.123
 4261.00    1.20881   1.01032    0.122
 4262.00    1.15351   1.05641    0.122
 4263.00    1.07935   1.10805    0.123
 4264.00    1.15473   1.14622    0.123
 4265.00    1.24471   1.15974    0.123
 4266.00    1.17239   1.14696    0.121
 4267.00    1.09013   1.11219    0.120
 4268.00    1.04588   1.06024    0.119
 4269.00    1.00251   0.99821    0.118
 4270.00    0.93299   0.93745    0.116
 4271.00    0.86638   0.89237    0.114
 4272.00    0.87699   0.87302    0.115
 4273.00    0.89451   0.88176    0.116
 4274.00    1.00686   0.91604    0.118
 4275.00    1.10762   0.96636    0.119
 4276.00    1.10318   1.02033    0.119
 4277.00    1.10179   1.06424    0.119
 4278.00    1.12065   1.08451    0.120
 4279.00    1.13945   1.08118    0.121
 4280.00    1.15792   1.06757    0.121
 4281.00    1.16872   1.05557    0.120
 4282.00    1.14747   1.05077   -2.000
 4283.00    1.10450   1.04777   -2.000
 4284.00    0.98655   1.03862   -2.000
 4285.00    0.91517   1.02243   -2.000
 4286.00    0.97911   0.99946   -2.000
 4287.00    1.04218   0.97081   -2.000
 4288.00    1.10303   0.94095   -2.000
 4289.00    1.12336   0.92005   -2.000
 4290.00    1.05704   0.91887   -2.000
 4291.00    1.00881   0.93974   -2.000
 4292.00    0.99414   0.97067   -2.000
 4293.00    0.98802   0.99346   -2.000
 4294.00    0.99574   0.99841   -2.000
 4295.00    1.00216   0.98237   -2.000
 4296.00    1.00674   0.94832   -2.000
 4297.00    0.96886   0.90079   -2.000
 4298.00    0.87782   0.84685    0.117
 4299.00    0.84048   0.80159    0.116
 4300.00    0.86236   0.77564    0.117
 4301.00    0.89612   0.76978    0.117
 4302.00    0.94144   0.77793    0.116
 4303.00    0.90454   0.78794    0.115
 4304.00    0.79709   0.78995    0.113
 4305.00    0.78848   0.78104    0.113
 4306.00    0.85456   0.76220    0.113
 4307.00    0.89217   0.74327    0.114
 4308.00    0.91086   0.73836    0.114
 4309.00    0.92995   0.75523    0.116
 4310.00    0.94926   0.79393    0.118
 4311.00    0.99450   0.84761    0.116
 4312.00    1.05289   0.90963    0.113
 4313.00    1.11603   0.97866    0.113
 4314.00    1.18127   1.05687    0.113
 4315.00    1.23849   1.13941    0.114
 4316.00    1.29269   1.21199    0.115
 4317.00    1.30904   1.26074    0.116
 4318.00    1.31328   1.27730    0.116
 4319.00    1.32140   1.26341    0.118
 4320.00    1.33056   1.22712    0.120
 4321.00    1.25855   1.17278    0.120
 4322.00    1.16877   1.10237    0.120
 4323.00    1.15010   1.02753    0.119
 4324.00    1.14379   0.96849    0.118
 4325.00    1.17471   0.94974    0.119
 4326.00    1.21055   0.98235    0.120
 4327.00    1.26511   1.05103    0.120
 4328.00    1.32142   1.12607    0.121
 4329.00    1.32570   1.18173    0.119
 4330.00    1.32700   1.21252    0.000
 4331.00    1.30257   1.22758    0.000
 4332.00    1.27800   1.23652    0.000
 4333.00    1.30519   1.24014    0.000
 4334.00    1.32995   1.22869    0.000
 4335.00    1.29620   1.19032    0.000
 4336.00    1.26327   1.12282    0.000
 4337.00    1.24097   1.03889    0.000
 4338.00    1.21781   0.95939    0.000
 4339.00    1.18716   0.90832    0.000
 4340.00    1.17228   0.90143    0.000
 4341.00    1.25923   0.93454    0.000
 4342.00    1.32500   0.99141    0.000
 4343.00    1.28394   1.05483    0.000
 4344.00    1.24867   1.11076    0.000
 4345.00    1.23704   1.15399    0.000
 4346.00    1.23150   1.18711    0.000
 4347.00    1.24655   1.20913    0.000
 4348.00    1.24400   1.21340    0.000
 4349.00    1.19119   1.19379    0.000
 4350.00    1.16851   1.15397    0.000
 4351.00    1.21927   1.11244    0.119
 4352.00    1.23723   1.09128    0.119
 4353.00    1.18619   1.10031    0.119
 4354.00    1.17753   1.13233    0.120
 4355.00    1.24633   1.16927    0.120
 4356.00    1.30421   1.19547    0.121
 4357.00    1.34462   1.20667    0.121
 4358.00    1.37113   1.20929    0.121
 4359.00    1.37816   1.21420    0.120
 4360.00    1.38300   1.22895    0.120
 4361.00    1.38516   1.25285    0.120
 4362.00    1.37872   1.27849    0.121
 4363.00    1.36294   1.29782    0.122
 4364.00    1.37762   1.30434    0.122
 4365.00    1.42152   1.29473    0.122
 4366.00    1.41327   1.27131    0.121
 4367.00    1.36091   1.24293    0.121
 4368.00    1.32527   1.22009    0.120
 4369.00    1.30210   1.20734    0.119
 4370.00    1.32103   1.20033    0.120
 4371.00    1.36752   1.18866    0.122
 4372.00    1.35108   1.16657    0.122
 4373.00    1.29859   1.13947    0.121
 4374.00    1.27718   1.12091    0.121
 4375.00    1.27127   1.12382    0.122
 4376.00    1.25943   1.14922    0.121
 4377.00    1.24502   1.18275    0.121
 4378.00    1.22805   1.20326    0.121
 4379.00    1.21014   1.19461    0.121
 4380.00    1.14190   1.15140    0.120
 4381.00    1.05789   1.07936    0.118
 4382.00    1.09893   0.99899    0.119
 4383.00    1.17270   0.94062    0.120
 4384.00    1.12927   0.92714    0.117
 4385.00    1.06081   0.95970    0.113
 4386.00    1.09798   1.01600    0.114
 4387.00    1.15301   1.06782    0.116
 4388.00    1.21886   1.09978    0.115
 4389.00    1.28608   1.11516    0.115
 4390.00    1.29918   1.12575    0.116
 4391.00    1.30744   1.13755    0.118
 4392.00    1.26880   1.14984    0.117
 4393.00    1.22766   1.16154    0.116
 4394.00    1.31638   1.17564    0.118
 4395.00    1.40624   1.19575    0.121
 4396.00    1.38186   1.21794    0.117
 4397.00    1.35901   1.23214    0.114
 4398.00    1.36983   1.22968    0.117
 4399.00    1.37755   1.21156    0.119
 4400.00    1.34715   1.18911    0.117
 4401.00    1.31677   1.16747    0.116
 4402.00    1.28664   1.14115    0.116
 4403.00    1.25497   1.10888    0.117
 4404.00    1.21359   1.07943    0.116
 4405.00    1.18370   1.06457    0.115
 4406.00    1.21039   1.07164    0.116
 4407.00    1.24133   1.10014    0.116
 4408.00    1.28923   1.14311    0.117
 4409.00    1.32262   1.19253    0.117
 4410.00    1.30792   1.23971    0.115
 4411.00    1.31588   1.27132    0.114
 4412.00    1.38732   1.27382    0.116
 4413.00    1.42428   1.24724    0.116
 4414.00    1.37861   1.21017    0.115
 4415.00    1.35369   1.18551    0.115
 4416.00    1.37168   1.18745    0.115
 4417.00    1.37548   1.21628    0.116
 4418.00    1.35372   1.25470    0.116
 4419.00    1.35067   1.28135    0.115
 4420.00    1.37707   1.28645    0.113
 4421.00    1.39245   1.27360    0.112
 4422.00    1.39261   1.25571    0.112
 4423.00    1.38382   1.24397    0.112
 4424.00    1.36413   1.24169    0.111
 4425.00    1.35508   1.24564    0.111
 4426.00    1.35743   1.25045    0.112
 4427.00    1.38936   1.25346    0.113
 4428.00    1.44926   1.25270    0.114
 4429.00    1.45135   1.24887    0.115
 4430.00    1.40523   1.24393    0.114
 4431.00    1.39080   1.23503    0.114
 4432.00    1.39963   1.22018    0.114
 4433.00    1.40105   1.20135    0.114
 4434.00    1.39769   1.18742    0.115
 4435.00    1.37547   1.19290    0.114
 4436.00    1.34262   1.22293    0.112
 4437.00    1.36077   1.26659    0.114
 4438.00    1.40395   1.30234    0.116
 4439.00    1.42334   1.31145    0.117
 4440.00    1.43264   1.29253    0.117
 4441.00    1.44181   1.26077    0.116
 4442.00    1.45094   1.23788    0.115
 4443.00    1.45441   1.23959    0.115
 4444.00    1.45614   1.26493    0.114
 4445.00    1.49185   1.29927    0.115
 4446.00    1.53625   1.32819    0.115
 4447.00    1.54528   1.34400    0.115
 4448.00    1.54694   1.34536    0.114
 4449.00    1.51540   1.33799    0.114
 4450.00    1.47840   1.32554    0.113
 4451.00    1.47998   1.30510    0.113
 4452.00    1.48631   1.27493    0.112
 4453.00    1.42878   1.23688    0.109
 4454.00    1.36580   1.19858    0.106
 4455.00    1.34701   1.17042    0.107
 4456.00    1.33040   1.15618    0.108
 4457.00    1.31433   1.15229    0.108
 4458.00    1.29868   1.15186    0.108
 4459.00    1.30955   1.15046    0.109
 4460.00    1.32007   1.15153    0.109
 4461.00    1.32353   1.16379    0.000
 4462.00    1.32554   1.18878    0.000
 4463.00    1.31045   1.21928    0.000
 4464.00    1.30362   1.24719    0.000
 4465.00    1.36379   1.26434    0.000
 4466.00    1.41978   1.26830    0.000
 4467.00    1.45040   1.26439    0.000
 4468.00    1.47406   1.26083    0.000
 4469.00    1.46432   1.26547    0.000
 4470.00    1.45839   1.28244    0.000
 4471.00    1.46736   1.31173    0.000
 4472.00    1.48160   1.34719    0.000
 4473.00    1.51297   1.37966    0.000
 4474.00    1.54554   1.40466    0.000
 4475.00    1.58141   1.42190    0.000
 4476.00    1.59703   1.42892    0.000
 4477.00    1.56489   1.42065    0.000
 4478.00    1.53449   1.39403    0.000
 4479.00    1.50767   1.35366    0.000
 4480.00    1.47686   1.31446    0.000
 4481.00    1.43899   1.29552    0.000
 4482.00    1.43297   1.30663    0.106
 4483.00    1.47633   1.34093    0.107
 4484.00    1.51110   1.38127    0.107
 4485.00    1.53418   1.40844    0.107
 4486.00    1.54290   1.41049    0.107
 4487.00    1.53441   1.38971    0.107
 4488.00    1.53465   1.35972    0.107
 4489.00    1.54412   1.33665    0.108
 4490.00    1.53733   1.32893    0.108
 4491.00    1.51537   1.33182    0.107
 4492.00    1.49127   1.33292    0.106
 4493.00    1.46541   1.32547    0.105
 4494.00    1.46222   1.31439    0.104
 4495.00    1.47546   1.31091    0.105
 4496.00    1.48645   1.32374    0.106
 4497.00    1.49603   1.34994    0.107
 4498.00    1.52297   1.37821    0.107
 4499.00    1.55954   1.39967    0.107
 4500.00    1.55913   1.41555    0.107
 4501.00    1.54086   1.43473    0.106
 4502.00    1.56906   1.46082    0.106
 4503.00    1.61665   1.48917    0.106
 4504.00    1.61176   1.51065    0.105
 4505.00    1.58815   1.51725    0.104
 4506.00    1.58424   1.51098    0.103
 4507.00    1.58628   1.50099    0.103
 4508.00    1.57415   1.49404    0.104
 4509.00    1.55848   1.48989    0.105
 4510.00    1.55422   1.48306    0.105
 4511.00    1.55227   1.46932    0.106
 4512.00    1.56201   1.44943    0.106
 4513.00    1.57362   1.42864    0.107
 4514.00    1.55970   1.41352    0.106
 4515.00    1.54274   1.40569    0.106
 4516.00    1.52462   1.40355    0.105
 4517.00    1.50640   1.40743    0.105
 4518.00    1.50263   1.41640    0.104
 4519.00    1.49952   1.42721    0.103
 4520.00    1.47539   1.43364    0.103
 4521.00    1.45170   1.42858    0.103
 4522.00    1.46348   1.41104    0.103
 4523.00    1.47463   1.38252    0.103
 4524.00    1.47373   1.34608    0.103
 4525.00    1.46843   1.30679    0.103
 4526.00    1.41384   1.26832    0.103
 4527.00    1.36454   1.23705    0.103
 4528.00    1.35665   1.22072    0.102
 4529.00    1.34855   1.22110    0.102
 4530.00    1.33914   1.23361    0.102
 4531.00    1.33450   1.24820    0.103
 4532.00    1.35216   1.25590    0.102
 4533.00    1.36738   1.25876    0.102
 4534.00    1.37329   1.26736    0.102
 4535.00    1.38233   1.29246    0.102
 4536.00    1.40133   1.33247    0.103
 4537.00    1.43135   1.37333    0.104
 4538.00    1.49113   1.40072    0.104
 4539.00    1.54232   1.40839    0.104
 4540.00    1.57363   1.40358    0.104
 4541.00    1.58873   1.39756    0.103
 4542.00    1.57135   1.39323    0.104
 4543.00    1.53708   1.38868    0.104
 4544.00    1.47332   1.38266    0.103
 4545.00    1.43041   1.37439    0.103
 4546.00    1.41936   1.36453    0.103
 4547.00    1.43894   1.35421    0.103
 4548.00    1.49963   1.34560    0.104
 4549.00    1.53595   1.34151    0.104
 4550.00    1.54347   1.34056    0.000
 4551.00    1.55115   1.34026    0.000
 4552.00    1.55898   1.33878    0.000
 4553.00    1.55379   1.33645    0.000
 4554.00    1.53662   1.34118    0.000
 4555.00    1.53553   1.36059    0.000
 4556.00    1.54747   1.39272    0.000
 4557.00    1.56228   1.42898    0.000
 4558.00    1.57913   1.45924    0.000
 4559.00    1.60566   1.47642    0.000
 4560.00    1.63827   1.47879    0.000
 4561.00    1.64955   1.46678    0.000
 4562.00    1.64917   1.44430    0.000
 4563.00    1.61377   1.42031    0.000
 4564.00    1.56172   1.40576    0.000
 4565.00    1.56775   1.40908    0.000
 4566.00    1.59759   1.42816    0.000
 4567.00    1.60616   1.45129    0.000
 4568.00    1.60728   1.46562    0.000
 4569.00    1.61381   1.46344    0.000
 4570.00    1.62193   1.45138    0.000
 4571.00    1.63730   1.44444    0.000
 4572.00    1.65444   1.44803    0.000
 4573.00    1.64385   1.45940    0.000
 4574.00    1.62777   1.47267    0.000
 4575.00    1.63664   1.47796    0.000
 4576.00    1.64937   1.46961    0.000
 4577.00    1.60472   1.44896    0.000
 4578.00    1.55350   1.42028    0.000
 4579.00    1.52530   1.39136    0.000
 4580.00    1.49888   1.37081    0.000
 4581.00    1.53414   1.36201    0.000
 4582.00    1.57197   1.36292    0.000
 4583.00    1.58479   1.36926    0.000
 4584.00    1.59688   1.37761    0.000
 4585.00    1.58660   1.39003    0.000
 4586.00    1.57727   1.40937    0.000
 4587.00    1.58455   1.43213    0.000
 4588.00    1.58959   1.45048    0.000
 4589.00    1.57056   1.45635    0.000
 4590.00    1.55415   1.44722    0.000
 4591.00    1.55755   1.42885    0.000
 4592.00    1.56110   1.40942    0.000
 4593.00    1.56550   1.39484    0.000
 4594.00    1.56314   1.38823    0.000
 4595.00    1.52987   1.38836    0.000
 4596.00    1.50709   1.39235    0.000
 4597.00    1.52352   1.39822    0.000
 4598.00    1.54852   1.40213    0.000
 4599.00    1.60032   1.40296    0.000
 4600.00    1.63386   1.40360    0.000
 4601.00    1.61894   1.40491    0.000
 4602.00    1.59782   1.40798    0.000
 4603.00    1.56257   1.41387    0.000
 4604.00    1.55712   1.42339    0.000
 4605.00    1.61046   1.43963    0.000
 4606.00    1.65199   1.46465    0.000
 4607.00    1.67321   1.49499    0.000
 4608.00    1.67980   1.52124    0.000
 4609.00    1.66436   1.53483    0.000
 4610.00    1.67251   1.53378    0.000
 4611.00    1.71186   1.52237    0.000
 4612.00    1.72443   1.51032    0.000
 4613.00    1.70578   1.50530    0.000
 4614.00    1.70169   1.50652    0.000
 4615.00    1.71256   1.51143    0.000
 4616.00    1.71899   1.51616    0.000
 4617.00    1.72140   1.51638    0.000
 4618.00    1.71000   1.51549    0.000
 4619.00    1.68758   1.51791    0.000
 4620.00    1.69308   1.52211    0.000
 4621.00    1.71820   1.52719    0.000
 4622.00    1.69259   1.53167    0.000
 4623.00    1.63570   1.53116    0.000
 4624.00    1.61933   1.52596    0.000
 4625.00    1.62478   1.52035    0.000
 4626.00    1.63450   1.51530    0.000
 4627.00    1.64622   1.51054    0.000
 4628.00    1.64417   1.50869    0.000
 4629.00    1.63656   1.51062    0.000
 4630.00    1.65471   1.51184    0.000
 4631.00    1.68171   1.50852    0.000
 4632.00    1.68117   1.50067    0.000
 4633.00    1.67266   1.48849    0.000
 4634.00    1.63370   1.47323    0.000
 4635.00    1.58744   1.45761    0.000
 4636.00    1.58850   1.44321    0.000
 4637.00    1.59870   1.43096    0.000
 4638.00    1.58944   1.42332    0.000
 4639.00    1.57727   1.42479    0.000
 4640.00    1.55789   1.43452    0.000
 4641.00    1.53771   1.44449    0.000
 4642.00    1.54822   1.44705    0.000
 4643.00    1.56095   1.43649    0.000
 4644.00    1.57030   1.41153    0.000
 4645.00    1.57953   1.38125    0.000
 4646.00    1.55799   1.35894    0.000
 4647.00    1.53803   1.35321    0.000
 4648.00    1.58256   1.36636    0.000
 4649.00    1.62429   1.39279    0.000
 4650.00    1.62022   1.42185    0.000
 4651.00    1.61473   1.44336    0.000
 4652.00    1.59468   1.45036    0.000
 4653.00    1.58017   1.44478    0.000
 4654.00    1.60612   1.43606    0.000
 4655.00    1.63386   1.43494    0.000
 4656.00    1.67154   1.45010    0.000
 4657.00    1.70267   1.48083    0.000
 4658.00    1.70452   1.51551    0.000
 4659.00    1.69627   1.53943    0.000
 4660.00    1.65097   1.54276    0.000
 4661.00    1.60760   1.52488    0.000
 4662.00    1.57012   1.49320    0.000
 4663.00    1.54351   1.45511    0.000
 4664.00    1.54524   1.41244    0.000
 4665.00    1.53626   1.36780    0.000
 4666.00    1.50326   1.33051    0.000
 4667.00    1.48799   1.31155    0.000
 4668.00    1.50716   1.31725    0.000
 4669.00    1.52989   1.34600    0.000
 4670.00    1.55864   1.38549    0.000
 4671.00    1.56382   1.42058    0.000
 4672.00    1.53404   1.44450    0.000
 4673.00    1.54787   1.45952    0.000
 4674.00    1.61858   1.47077    0.000
 4675.00    1.64436   1.47885    0.000
 4676.00    1.61852   1.47978    0.000
 4677.00    1.60234   1.47091    0.000
 4678.00    1.59596   1.45345    0.000
 4679.00    1.57556   1.43312    0.000
 4680.00    1.54265   1.41930    0.000
 4681.00    1.52706   1.41871    0.000
 4682.00    1.52511   1.42947    0.000
 4683.00    1.55334   1.44499    0.000
 4684.00    1.60247   1.45919    0.000
 4685.00    1.60772   1.46685    0.000
 4686.00    1.58631   1.46706    0.000
 4687.00    1.56447   1.46361    0.000
 4688.00    1.54240   1.45896    0.000
 4689.00    1.56509   1.45464    0.000
 4690.00    1.60838   1.45398    0.000
 4691.00    1.59912   1.45864    0.000
 4692.00    1.56903   1.46847    0.000
 4693.00    1.58327   1.48270    0.000
 4694.00    1.61248   1.49641    0.000
 4695.00    1.58966   1.50106    0.000
 4696.00    1.55208   1.49146    0.000
 4697.00    1.56526   1.47067    0.000
 4698.00    1.59034   1.44609    0.000
 4699.00    1.60640   1.42328    0.000
 4700.00    1.62076   1.40595    0.000
 4701.00    1.59031   1.39632    0.000
 4702.00    1.55334   1.39487    0.000
 4703.00    1.53499   1.39933    0.000
 4704.00    1.51861   1.40522    0.000
 4705.00    1.50263   1.40854    0.000
 4706.00    1.48667   1.40772    0.000
 4707.00    1.53126   1.40472    0.000
 4708.00    1.57790   1.40613    0.000
 4709.00    1.60327   1.41740    0.000
 4710.00    1.62713   1.43476    0.000
 4711.00    1.60304   1.44986    0.000
 4712.00    1.57919   1.45730    0.000
 4713.00    1.55894   1.45940    0.000
 4714.00    1.54579   1.46437    0.000
 4715.00    1.60212   1.47778    0.000
 4716.00    1.65619   1.50013    0.000
 4717.00    1.69430   1.52773    0.000
 4718.00    1.72458   1.55267    0.000
 4719.00    1.71221   1.56845    0.000
 4720.00    1.70027   1.57466    0.000
 4721.00    1.69024   1.57522    0.000
 4722.00    1.68668   1.57391    0.000
 4723.00    1.70637   1.57037    0.000
 4724.00    1.71541   1.55982    0.000
 4725.00    1.69239   1.53670    0.000
 4726.00    1.65992   1.50192    0.000
 4727.00    1.60321   1.46380    0.000
 4728.00    1.56584   1.43252    0.000
 4729.00    1.57110   1.41669    0.000
 4730.00    1.56608   1.41951    0.000
 4731.00    1.54141   1.43517    0.000
 4732.00    1.55068   1.45506    0.000
 4733.00    1.61659   1.47336    0.000
 4734.00    1.64394   1.48472    0.000
 4735.00    1.61493   1.49008    0.000
 4736.00    1.62893   1.49598    0.000
 4737.00    1.69822   1.50320    0.000
 4738.00    1.74048   1.50945    0.000
 4739.00    1.75211   1.51541    0.000
 4740.00    1.76046   1.52116    0.000
 4741.00    1.76555   1.52613    0.000
 4742.00    1.73838   1.53112    0.000
 4743.00    1.68280   1.53766    0.000
 4744.00    1.66101   1.54673    0.000
 4745.00    1.66545   1.55630    0.000
 4746.00    1.69081   1.56386    0.000
 4747.00    1.73045   1.56970    0.000
 4748.00    1.75372   1.57317    0.000
 4749.00    1.76720   1.57124    0.000
 4750.00    1.73868   1.56269    0.000
 4751.00    1.68825   1.54950    0.000
 4752.00    1.68390   1.53362    0.000
 4753.00    1.70041   1.51814    0.000
 4754.00    1.69834   1.50665    0.000
 4755.00    1.68904   1.50149    0.000
 4756.00    1.69920   1.50257    0.000
 4757.00    1.71581   1.50775    0.000
 4758.00    1.68783   1.51252    0.000
 4759.00    1.64745   1.51019    0.000
 4760.00    1.65522   1.49718    0.000
 4761.00    1.67401   1.47603    0.100
 4762.00    1.67473   1.45102    0.099
 4763.00    1.67215   1.42714    0.098
 4764.00    1.64739   1.41172    0.097
 4765.00    1.61951   1.41015    0.096
 4766.00    1.58948   1.42203    0.097
 4767.00    1.55922   1.44415    0.097
 4768.00    1.59120   1.47025    0.097
 4769.00    1.62720   1.49159    0.096
 4770.00    1.62729   1.50500    0.096
 4771.00    1.62638   1.51442    0.095
 4772.00    1.66438   1.52478    0.096
 4773.00    1.70167   1.53762    0.097
 4774.00    1.71849   1.55206    0.096
 4775.00    1.73471   1.56588    0.096
 4776.00    1.74248   1.57428    0.096
 4777.00    1.74843   1.57428    0.095
 4778.00    1.73723   1.56820    0.095
 4779.00    1.72299   1.55840    0.094
 4780.00    1.68788   1.54417    0.093
 4781.00    1.66162   1.52698    0.093
 4782.00    1.68229   1.51181    0.093
 4783.00    1.68451   1.49982    0.093
 4784.00    1.60820   1.48886    0.092
 4785.00    1.55242   1.48132    0.091
 4786.00    1.56874   1.47829    0.091
 4787.00    1.59070   1.47703    0.092
 4788.00    1.62935   1.47950    0.093
 4789.00    1.66846   1.48909    0.093
 4790.00    1.70872   1.50553    0.093
 4791.00    1.74286   1.52889    0.093
 4792.00    1.76371   1.55770    0.094
 4793.00    1.76850   1.58496    0.094
 4794.00    1.74305   1.60256    0.094
 4795.00    1.71707   1.60579    0.093
 4796.00    1.69022   1.59400    0.092
 4797.00    1.67295   1.57275    0.091
 4798.00    1.66949   1.55291    0.093
 4799.00    1.69288   1.54395    0.093
 4800.00    1.75033   1.54796    0.094
 4801.00    1.78125   1.55918    0.094
 4802.00    1.78256   1.56827    0.094
 4803.00    1.76922   1.56843    0.094
 4804.00    1.74145   1.55923    0.094
 4805.00    1.72836   1.54399    0.094
 4806.00    1.72803   1.52929    0.093
 4807.00    1.72425   1.52191    0.093
 4808.00    1.71785   1.52308    0.094
 4809.00    1.71671   1.52960    0.094
 4810.00    1.71910   1.53884    0.092
 4811.00    1.71545   1.54876    0.091
 4812.00    1.70822   1.55790    0.091
 4813.00    1.73155   1.56686    0.091
 4814.00    1.77059   1.57737    0.091
 4815.00    1.79029   1.58980    0.092
 4816.00    1.80139   1.60272    0.092
 4817.00    1.77893   1.61379    0.092
 4818.00    1.74364   1.61941    0.092
 4819.00    1.73677   1.61634    0.092
 4820.00    1.73915   1.60253    0.092
 4821.00    1.75393   1.57906    0.092
 4822.00    1.77210   1.55408    0.093
 4823.00    1.75644   1.53742    0.093
 4824.00    1.73322   1.53213    0.093
 4825.00    1.68644   1.53548    0.092
 4826.00    1.63547   1.54237    0.091
 4827.00    1.64398   1.54687    0.091
 4828.00    1.66058   1.54536    0.091
 4829.00    1.68589   1.53796    0.092
 4830.00    1.71204   1.52934    0.093
 4831.00    1.71977   1.52584    0.093
 4832.00    1.72638   1.52908    0.093
 4833.00    1.69970   1.53643    0.092
 4834.00    1.67225   1.54535    0.091
 4835.00    1.66405   1.55244    0.091
 4836.00    1.65714   1.55214    0.091
 4837.00    1.68411   1.54274    0.091
 4838.00    1.70752   1.52904    0.091
 4839.00    1.68244   1.51699    0.090
 4840.00    1.66272   1.50902    0.090
 4841.00    1.69143   1.50658    0.090
 4842.00    1.71919   1.51212    0.091
 4843.00    1.74056   1.52414    0.091
 4844.00    1.75128   1.53649    0.092
 4845.00    1.70702   1.54371    0.092
 4846.00    1.67236   1.54376    0.092
 4847.00    1.67770   1.53871    0.091
 4848.00    1.67754   1.53279    0.000
 4849.00    1.65847   1.52836    0.000
 4850.00    1.64791   1.52542    0.000
 4851.00    1.66203   1.52050    0.000
 4852.00    1.65897   1.50649    0.000
 4853.00    1.61342   1.48134    0.000
 4854.00    1.57787   1.45234    0.000
 4855.00    1.56368   1.42495    0.000
 4856.00    1.55460   1.39584    0.000
 4857.00    1.55499   1.35867    0.000
 4858.00    1.54565   1.30984    0.000
 4859.00    1.52057   1.25474    0.000
 4860.00    1.49548   1.21103    0.000
 4861.00    1.47035   1.19576    0.000
 4862.00    1.46625   1.21377    0.000
 4863.00    1.48839   1.25950    0.000
 4864.00    1.51156   1.31839    0.000
 4865.00    1.53585   1.37187    0.000
 4866.00    1.54318   1.40905    0.000
 4867.00    1.53403   1.42812    0.000
 4868.00    1.51833   1.42803    0.000
 4869.00    1.49701   1.41206    0.000
 4870.00    1.48505   1.39274    0.000
 4871.00    1.48015   1.38241    0.000
 4872.00    1.50268   1.38543    0.000
 4873.00    1.54340   1.40175    0.000
 4874.00    1.58528   1.42854    0.000
 4875.00    1.62784   1.45831    0.093
 4876.00    1.64151   1.48520    0.093
 4877.00    1.64057   1.50897    0.092
 4878.00    1.66081   1.52702    0.092
 4879.00    1.69032   1.53482    0.093
 4880.00    1.68045   1.53312    0.093
 4881.00    1.65578   1.52474    0.092
 4882.00    1.64861   1.50970    0.093
 4883.00    1.64702   1.49028    0.093
 4884.00    1.64550   1.47173    0.093
 4885.00    1.64400   1.45633    0.093
 4886.00    1.61458   1.44317    0.093
 4887.00    1.57906   1.43135    0.093
 4888.00    1.57637   1.42045    0.093
 4889.00    1.57936   1.41371    0.092
 4890.00    1.59417   1.41998    0.093
 4891.00    1.61054   1.44582    0.093
 4892.00    1.68572   1.49062    0.094
 4893.00    1.76636   1.54701    0.095
 4894.00    1.79841   1.60200    0.095
 4895.00    1.82770   1.64157    0.095
 4896.00    1.78356   1.65884    0.095
 4897.00    1.73848   1.65548    0.095
 4898.00    1.77349   1.63900    0.096
 4899.00    1.80548   1.61865    0.096
 4900.00    1.76556   1.59965    0.095
 4901.00    1.72826   1.58506    0.093
 4902.00    1.72498   1.57947    0.093
 4903.00    1.72229   1.58433    0.093
 4904.00    1.72471   1.59426    0.093
 4905.00    1.72821   1.60164    0.093
 4906.00    1.73867   1.60040    0.093
 4907.00    1.74259   1.58665    0.093
 4908.00    1.71354   1.56278    0.093
 4909.00    1.69020   1.53911    0.093
 4910.00    1.69004   1.52670    0.093
 4911.00    1.68985   1.53000    0.094
 4912.00    1.68958   1.54658    0.093
 4913.00    1.68432   1.56849    0.092
 4914.00    1.66487   1.58260    0.091
 4915.00    1.65504   1.57628    0.091
 4916.00    1.66861   1.54446    0.092
 4917.00    1.66815   1.49262    0.092
 4918.00    1.63822   1.43533    0.092
 4919.00    1.61199   1.39154    0.092
 4920.00    1.59248   1.37428    0.091
 4921.00    1.59797   1.38375    0.090
 4922.00    1.64332   1.41174    0.090
 4923.00    1.66657   1.44939    0.090
 4924.00    1.65890   1.48984    0.090
 4925.00    1.66287   1.52861    0.090
 4926.00    1.68116   1.56564    0.090
 4927.00    1.71047   1.60051    0.089
 4928.00    1.75173   1.62770    0.088
 4929.00    1.76581   1.64082    0.088
 4930.00    1.75386   1.63678    0.089
 4931.00    1.74272   1.61725    0.089
 4932.00    1.73227   1.58979    0.088
 4933.00    1.71149   1.56352    0.088
 4934.00    1.68301   1.54078    0.089
 4935.00    1.66368   1.51946    0.089
 4936.00    1.65033   1.50017    0.087
 4937.00    1.65417   1.48704    0.086
 4938.00    1.66785   1.48546    0.087
 4939.00    1.67392   1.49993    0.087
 4940.00    1.67621   1.52996    0.000
 4941.00    1.69904   1.56874    0.000
 4942.00    1.73071   1.60471    0.000
 4943.00    1.74063   1.62811    0.000
 4944.00    1.74252   1.63898    0.000
 4945.00    1.76418   1.64463    0.000
 4946.00    1.79202   1.65016    0.000
 4947.00    1.81583   1.65726    0.000
 4948.00    1.83859   1.66638    0.000
 4949.00    1.82122   1.67463    0.000
 4950.00    1.79530   1.67638    0.000
 4951.00    1.79074   1.66866    0.000
 4952.00    1.78977   1.65102    0.000
 4953.00    1.74974   1.62185    0.000
 4954.00    1.70475   1.57936    0.000
 4955.00    1.68329   1.52993    0.000
 4956.00    1.66393   1.48976    0.000
 4957.00    1.67278   1.47285    0.000
 4958.00    1.68311   1.48224    0.000
 4959.00    1.69982   1.51166    0.000
 4960.00    1.71633   1.55009    0.000
 4961.00    1.70724   1.58178    0.000
 4962.00    1.69910   1.59374    0.000
 4963.00    1.71187   1.58608    0.000
 4964.00    1.72228   1.56800    0.000
 4965.00    1.70365   1.54846    0.000
 4966.00    1.68830   1.53315    0.000
 4967.00    1.70052   1.52624    0.000
 4968.00    1.71058   1.52993    0.000
 4969.00    1.70719   1.54289    0.000
 4970.00    1.70384   1.56145    0.000
 4971.00    1.70074   1.58223    0.000
 4972.00    1.70601   1.60143    0.000
 4973.00    1.74459   1.61482    0.000
 4974.00    1.77057   1.61888    0.000
 4975.00    1.75487   1.61142    0.000
 4976.00    1.73810   1.59322    0.000
 4977.00    1.71834   1.56701    0.000
 4978.00    1.68620   1.53508    0.000
 4979.00    1.62443   1.49821    0.000
 4980.00    1.57994   1.45876    0.000
 4981.00    1.57112   1.42370    0.000
 4982.00    1.56460   1.40085    0.000
 4983.00    1.56221   1.39571    0.000
 4984.00    1.55945   1.41095    0.000
 4985.00    1.55610   1.44281    0.000
 4986.00    1.57641   1.48016    0.000
 4987.00    1.62935   1.51104    0.000
 4988.00    1.65777   1.52984    0.000
 4989.00    1.65641   1.53789    0.000
 4990.00    1.65334   1.53929    0.000
 4991.00    1.64843   1.53869    0.000
 4992.00    1.63119   1.54039    0.000
 4993.00    1.60232   1.54553    0.000
 4994.00    1.62179   1.55151    0.000
 4995.00    1.68150   1.55368    0.000
 4996.00    1.70003   1.54833    0.000
 4997.00    1.68837   1.53430    0.000
 4998.00    1.65087   1.51292    0.000
 4999.00    1.59674   1.48910    0.000
 5000.00    1.55394   1.46836    0.000
 5001.00    1.51751   1.45276    0.000
 5002.00    1.55402   1.44057    0.000
 5003.00    1.62628   1.42899    0.000
 5004.00    1.67984   1.41899    0.000
 5005.00    1.72550   1.41606    0.000
 5006.00    1.74080   1.42373    0.000
 5007.00    1.74508   1.43964    0.000
 5008.00    1.71325   1.45650    0.000
 5009.00    1.67035   1.46430    0.000
 5010.00    1.62321   1.45566    0.000
 5011.00    1.57500   1.43194    0.000
 5012.00    1.55477   1.40386    0.000
 5013.00    1.54036   1.38337    0.000
 5014.00    1.54465   1.37544    0.000
 5015.00    1.55200   1.37902    0.000
 5016.00    1.55271   1.39027    0.000
 5017.00    1.55259   1.40487    0.000
 5018.00    1.53266   1.41854    0.000
 5019.00    1.51105   1.42890    0.000
 5020.00    1.54762   1.43780    0.000
 5021.00    1.58704   1.44801    0.000
 5022.00    1.55355   1.45941    0.000
 5023.00    1.51998   1.47047    0.000
 5024.00    1.55080   1.47943    0.000
 5025.00    1.58109   1.48593    0.000
 5026.00    1.60073   1.49170    0.000
 5027.00    1.61782   1.49937    0.000
 5028.00    1.60518   1.51222    0.000
 5029.00    1.59643   1.53166    0.085
 5030.00    1.61904   1.55538    0.085
 5031.00    1.63855   1.57603    0.085
 5032.00    1.63922   1.58404    0.085
 5033.00    1.63588   1.57537    0.085
 5034.00    1.61334   1.55317    0.085
 5035.00    1.59566   1.52225    0.085
 5036.00    1.59689   1.48602    0.085
 5037.00    1.59605   1.44695    0.085
 5038.00    1.58853   1.40896    0.085
 5039.00    1.57576   1.37993    0.084
 5040.00    1.54861   1.36908    0.083
 5041.00    1.53556   1.38305    0.083
 5042.00    1.55568   1.42238    0.083
 5043.00    1.58360   1.47760    0.083
 5044.00    1.62738   1.53141    0.083
 5045.00    1.65250   1.56575    0.084
 5046.00    1.64459   1.57222    0.084
 5047.00    1.63332   1.55605    0.084
 5048.00    1.61682   1.52895    0.084
 5049.00    1.61083   1.50354    0.084
 5050.00    1.61911   1.49067    0.084
 5051.00    1.63399   1.49540    0.084
 5052.00    1.65678   1.51505    0.085
 5053.00    1.66509   1.54209    0.085
 5054.00    1.65815   1.56950    0.085
 5055.00    1.66278   1.59301    0.085
 5056.00    1.67819   1.61045    0.085
 5057.00    1.70083   1.62237    0.085
 5058.00    1.72940   1.63093    0.085
 5059.00    1.73392   1.63649    0.085
 5060.00    1.72109   1.63587    0.085
 5061.00    1.69710   1.62408    0.085
 5062.00    1.66604   1.60013    0.085
 5063.00    1.64564   1.56938    0.084
 5064.00    1.63115   1.53901    0.084
 5065.00    1.60400   1.51548    0.084
 5066.00    1.57073   1.50352    0.084
 5067.00    1.57521   1.50376    0.085
 5068.00    1.59539   1.51096    0.085
 5069.00    1.61876   1.51766    0.086
 5070.00    1.64327   1.52157    0.086
 5071.00    1.63531   1.52391    0.086
 5072.00    1.61759   1.52492    0.086
 5073.00    1.60977   1.52456    0.086
 5074.00    1.60442   1.52320    0.086
 5075.00    1.59501   1.51814    0.086
 5076.00    1.58477   1.50341    0.085
 5077.00    1.58344   1.47794    0.086
 5078.00    1.58353   1.44849    0.087
 5079.00    1.54798   1.42378    0.086
 5080.00    1.50821   1.41021    0.085
 5081.00    1.51520   1.41186    0.084
 5082.00    1.52596   1.42898    0.084
 5083.00    1.52432   1.45573    0.084
 5084.00    1.52212   1.48380    0.084
 5085.00    1.55961   1.50834    0.083
 5086.00    1.59721   1.52852    0.083
 5087.00    1.61711   1.54442    0.083
 5088.00    1.63668   1.55684    0.083
 5089.00    1.65000   1.56817    0.083
 5090.00    1.66119   1.58009    0.083
 5091.00    1.64854   1.59105    0.084
 5092.00    1.63746   1.59701    0.085
 5093.00    1.63863   1.59389    0.085
 5094.00    1.63710   1.57904    0.085
 5095.00    1.61964   1.55239    0.085
 5096.00    1.60338   1.51884    0.084
 5097.00    1.59276   1.48862    0.083
 5098.00    1.58516   1.47135    0.083
 5099.00    1.58903   1.47058    0.083
 5100.00    1.58677   1.48292    0.082
 5101.00    1.56502   1.50057    0.081
 5102.00    1.55104   1.51501    0.080
 5103.00    1.55799   1.51969    0.081
 5104.00    1.55463   1.51289    0.082
 5105.00    1.52747   1.49887    0.083
 5106.00    1.51658   1.48354    0.083
 5107.00    1.53825   1.47114    0.081
 5108.00    1.56457   1.46583    0.081
 5109.00    1.59901   1.46988    0.082
 5110.00    1.61253   1.48278    0.082
 5111.00    1.59416   1.50243    0.083
 5112.00    1.58960   1.52510    0.083
 5113.00    1.60353   1.54793    0.083
 5114.00    1.62828   1.56919    0.084
 5115.00    1.66579   1.58673    0.085
 5116.00    1.68723   1.59869    0.086
 5117.00    1.69194   1.60267    0.086
 5118.00    1.68512   1.59612    0.086
 5119.00    1.66770   1.57793    0.085
 5120.00    1.64758   1.54882    0.085
 5121.00    1.62527   1.51332    0.084
 5122.00    1.59544   1.47872    0.083
 5123.00    1.56026   1.45098    0.082
 5124.00    1.51887   1.43311    0.081
 5125.00    1.47359   1.42501    0.080
 5126.00    1.47504   1.42452    0.080
 5127.00    1.50198   1.42941    0.082
 5128.00    1.52314   1.43843    0.083
 5129.00    1.54154   1.45111    0.083
 5130.00    1.53937   1.46731    0.083
 5131.00    1.52879   1.48622    0.083
 5132.00    1.53194   1.50556    0.082
 5133.00    1.53989   1.52055    0.081
 5134.00    1.55215   1.52675    0.082
 5135.00    1.56568   1.52240    0.083
 5136.00    1.56594   1.50866    0.083
 5137.00    1.56295   1.49103    0.083
 5138.00    1.57070   1.47443    0.084
 5139.00    1.58056   1.46102    0.084
 5140.00    1.57657   1.45312    0.084
 5141.00    1.57044   1.45060    0.084
 5142.00    1.55017   1.45051    0.084
 5143.00    1.52829   1.45056    0.083
 5144.00    1.53241   1.44981    0.083
 5145.00    1.53851   1.44927    0.083
 5146.00    1.50991   1.44995    0.083
 5147.00    1.47988   1.45057    0.083
 5148.00    1.49808   1.45003    0.082
 5149.00    1.51563   1.44825    0.081
 5150.00    1.48926   1.44503    0.082
 5151.00    1.46509   1.44195    0.083
 5152.00    1.47922   1.44314    0.083
 5153.00    1.49542   1.45296    0.082
 5154.00    1.53369   1.47323    0.083
 5155.00    1.57100   1.50114    0.084
 5156.00    1.60106   1.53065    0.084
 5157.00    1.62397   1.55591    0.085
 5158.00    1.60589   1.57176    0.084
 5159.00    1.58463   1.57489    0.083
 5160.00    1.54889   1.56484    0.084
 5161.00    1.50610   1.54108    0.084
 5162.00    1.43702   1.50142    0.083
 5163.00    1.38198   1.44422    0.083
 5164.00    1.37076   1.37193    0.082
 5165.00    1.34815   1.29500    0.081
 5166.00    1.29535   1.22830    0.081
 5167.00    1.25250   1.18254    0.081
 5168.00    1.23224   1.15828    0.080
 5169.00    1.21482   1.14831    0.080
 5170.00    1.20299   1.14693    0.080
 5171.00    1.20142   1.15487    0.080
 5172.00    1.21747   1.17736    0.080
 5173.00    1.25041   1.21928    0.081
 5174.00    1.30874   1.27947    0.081
 5175.00    1.35482   1.34729    0.081
 5176.00    1.38469   1.40612    0.081
 5177.00    1.40049   1.44117    0.080
 5178.00    1.39991   1.44489    0.080
 5179.00    1.39684   1.41684    0.080
 5180.00    1.39121   1.36309    0.079
 5181.00    1.37437   1.29902    0.079
 5182.00    1.34738   1.24667    0.079
 5183.00    1.33858   1.22529    0.079
 5184.00    1.34429   1.24323    0.078
 5185.00    1.35847   1.29393    0.078
 5186.00    1.37859   1.36017    0.078
 5187.00    1.41323   1.42089    0.079
 5188.00    1.45681   1.45861    0.080
 5189.00    1.49091   1.46863    0.080
 5190.00    1.51991   1.45888    0.000
 5191.00    1.51162   1.44141    0.000
 5192.00    1.48593   1.42684    0.000
 5193.00    1.49619   1.42275    0.000
 5194.00    1.52091   1.43173    0.000
 5195.00    1.54633   1.45202    0.000
 5196.00    1.57198   1.47874    0.000
 5197.00    1.57733   1.50557    0.000
 5198.00    1.57683   1.52747    0.000
 5199.00    1.57322   1.54057    0.000
 5200.00    1.56888   1.54096    0.000
 5201.00    1.55478   1.52573    0.000
 5202.00    1.53881   1.49567    0.000
 5203.00    1.52562   1.45583    0.000
 5204.00    1.51285   1.41331    0.000
 5205.00    1.49158   1.37582    0.000
 5206.00    1.46938   1.35111    0.000
 5207.00    1.47878   1.34470    0.000
 5208.00    1.49045   1.35883    0.000
 5209.00    1.48756   1.39179    0.000
 5210.00    1.48414   1.43651    0.000
 5211.00    1.49764   1.48249    0.082
 5212.00    1.51263   1.51929    0.082
 5213.00    1.57888   1.54061    0.082
 5214.00    1.64066   1.54765    0.083
 5215.00    1.63004   1.54817    0.082
 5216.00    1.61904   1.55121    0.082
 5217.00    1.60419   1.56204    0.082
 5218.00    1.59345   1.57956    0.082
 5219.00    1.61258   1.59684    0.082
 5220.00    1.63018   1.60448    0.083
 5221.00    1.63923   1.59496    0.083
 5222.00    1.64118   1.56573    0.082
 5223.00    1.61154   1.52093    0.082
 5224.00    1.57812   1.47202    0.081
 5225.00    1.53084   1.43419    0.082
 5226.00    1.51069   1.41946    0.082
 5227.00    1.57358   1.43164    0.083
 5228.00    1.61456   1.46386    0.084
 5229.00    1.59856   1.50123    0.083
 5230.00    1.59304   1.52988    0.082
 5231.00    1.61093   1.54395    0.082
 5232.00    1.63383   1.54674    0.082
 5233.00    1.66644   1.54827    0.082
 5234.00    1.68507   1.55752    0.082
 5235.00    1.68007   1.57643    0.081
 5236.00    1.67849   1.60115    0.081
 5237.00    1.68196   1.62523    0.081
 5238.00    1.69441   1.64317    0.081
 5239.00    1.71854   1.65339    0.080
 5240.00    1.74229   1.65789    0.080
 5241.00    1.76561   1.65940    0.080
 5242.00    1.75505   1.65815    0.080
 5243.00    1.71022   1.65164    0.080
 5244.00    1.68220   1.63759    0.080
 5245.00    1.66918   1.61597    0.080
 5246.00    1.66354   1.58940    0.080
 5247.00    1.66369   1.56303    0.080
 5248.00    1.65892   1.54252    0.080
 5249.00    1.65073   1.53125    0.080
 5250.00    1.63912   1.52952    0.079
 5251.00    1.62544   1.53496    0.079
 5252.00    1.61576   1.54475    0.080
 5253.00    1.60821   1.55845    0.080
 5254.00    1.63311   1.57727    0.080
 5255.00    1.67292   1.60088    0.080
 5256.00    1.69577   1.62563    0.080
 5257.00    1.71191   1.64425    0.080
 5258.00    1.69276   1.64770    0.080
 5259.00    1.66172   1.62941    0.080
 5260.00    1.62065   1.58846    0.080
 5261.00    1.57673   1.53089    0.080
 5262.00    1.53461   1.46791    0.080
 5263.00    1.49290   1.41175    0.080
 5264.00    1.48257   1.37044    0.081
 5265.00    1.47812   1.34434    0.082
 5266.00    1.42770   1.32931    0.082
 5267.00    1.37063   1.32209    0.081
 5268.00    1.39006   1.32244    0.082
 5269.00    1.41754   1.33345    0.084
 5270.00    1.47074   1.35844    0.083
 5271.00    1.52568   1.39524    0.083
 5272.00    1.53880   1.43726    0.083
 5273.00    1.55051   1.47930    0.084
 5274.00    1.59568   1.51857    0.084
 5275.00    1.64009   1.55430    0.084
 5276.00    1.65893   1.58684    0.084
 5277.00    1.67770   1.61355    0.084
 5278.00    1.69530   1.62843    0.083
 5279.00    1.71045   1.62776    0.083
 5280.00    1.70172   1.61420    0.082
 5281.00    1.69318   1.59693    0.081
 5282.00    1.68593   1.58779    0.082
 5283.00    1.68443   1.59477    0.082
 5284.00    1.71415   1.61838    0.082
 5285.00    1.74012   1.65230    0.081
 5286.00    1.74976   1.68718    0.081
 5287.00    1.75712   1.71543    0.080
 5288.00    1.75629   1.73362    0.081
 5289.00    1.75937   1.74167    0.081
 5290.00    1.77423   1.74132    0.082
 5291.00    1.78166   1.73379    0.082
 5292.00    1.77014   1.71825    0.082
 5293.00    1.75421   1.69308    0.081
 5294.00    1.72857   1.65869    0.081
 5295.00    1.71590   1.61966    0.081
 5296.00    1.72800   1.58372    0.081
 5297.00    1.72119   1.55885    0.081
 5298.00    1.68293   1.55052    0.080
 5299.00    1.66367   1.55943    0.080
 5300.00    1.67213   1.58204    0.080
 5301.00    1.70233   1.61291    0.080
 5302.00    1.76045   1.64646    0.080
 5303.00    1.78938   1.67757    0.080
 5304.00    1.78533   1.70270    0.080
 5305.00    1.78742   1.72059    0.080
 5306.00    1.79565   1.73176    0.080
 5307.00    1.80789   1.73838    0.080
 5308.00    1.82366   1.74289    0.079
 5309.00    1.82992   1.74597    0.079
 5310.00    1.82882   1.74653    0.080
 5311.00    1.82389   1.74300    0.080
 5312.00    1.81635   1.73455    0.080
 5313.00    1.80011   1.72228    0.080
 5314.00    1.77869   1.70880    0.079
 5315.00    1.75501   1.69662    0.079
 5316.00    1.73015   1.68757    0.078
 5317.00    1.72128   1.68223    0.078
 5318.00    1.71962   1.67910    0.078
 5319.00    1.73531   1.67480    0.078
 5320.00    1.75772   1.66600    0.079
 5321.00    1.74539   1.65095    0.079
 5322.00    1.72157   1.62905    0.078
 5323.00    1.68764   1.59981    0.078
 5324.00    1.65091   1.56359    0.078
 5325.00    1.62087   1.52369    0.078
 5326.00    1.59235   1.48653    0.078
 5327.00    1.55733   1.46143    0.078
 5328.00    1.52113   1.45764    0.078
 5329.00    1.56388   1.47852    0.078
 5330.00    1.61770   1.51859    0.078
 5331.00    1.63331   1.56671    0.078
 5332.00    1.64507   1.61180    0.079
 5333.00    1.65687   1.64652    0.078
 5334.00    1.66867   1.66813    0.078
 5335.00    1.68747   1.67633    0.078
 5336.00    1.70636   1.67170    0.079
 5337.00    1.67358   1.65672    0.078
 5338.00    1.64248   1.63642    0.078
 5339.00    1.65917   1.61784    0.077
 5340.00    1.67463   1.60801    0.077
 5341.00    1.67238   1.60987    0.078
 5342.00    1.67097   1.62042    0.078
 5343.00    1.67744   1.63323    0.077
 5344.00    1.68433   1.64195    0.077
 5345.00    1.69397   1.64375    0.076
 5346.00    1.70168   1.64058    0.076
 5347.00    1.69922   1.63754    0.076
 5348.00    1.69605   1.63978    0.076
 5349.00    1.68987   1.65052    0.076
 5350.00    1.69218   1.67016    0.076
 5351.00    1.72418   1.69593    0.076
 5352.00    1.76306   1.72377    0.077
 5353.00    1.82222   1.75036    0.077
 5354.00    1.86086   1.77310    0.077
 5355.00    1.84797   1.79015    0.077
 5356.00    1.84561   1.80030    0.077
 5357.00    1.86604   1.80257    0.077
 5358.00    1.87459   1.79638    0.077
 5359.00    1.86084   1.78221    0.076
 5360.00    1.83763   1.76183    0.076
 5361.00    1.79891   1.73813    0.076
 5362.00    1.77401   1.71452    0.076
 5363.00    1.76900   1.69346    0.076
 5364.00    1.75794   1.67562    0.076
 5365.00    1.73921   1.65938    0.076
 5366.00    1.72635   1.64154    0.076
 5367.00    1.72003   1.61972    0.077
 5368.00    1.70456   1.59537   -2.000
 5369.00    1.68010   1.57475   -2.000
 5370.00    1.66024   1.56648   -2.000
 5371.00    1.64437   1.57721   -2.000
 5372.00    1.66305   1.60667   -2.000
 5373.00    1.70812   1.64683   -2.000
 5374.00    1.75297   1.68655   -2.000
 5375.00    1.79766   1.71672   -2.000
 5376.00    1.81349   1.73353   -2.000
 5377.00    1.81234   1.73828   -2.000
 5378.00    1.79998   1.73467   -2.000
 5379.00    1.78187   1.72629   -2.000
 5380.00    1.77991   1.71638   -2.000
 5381.00    1.78513   1.70789   -2.000
 5382.00    1.77151   1.70305   -2.000
 5383.00    1.75068   1.70265    0.077
 5384.00    1.74961   1.70523    0.077
 5385.00    1.75495   1.70722    0.077
 5386.00    1.75104   1.70474    0.076
 5387.00    1.74463   1.69576    0.076
 5388.00    1.72578   1.68089    0.076
 5389.00    1.70415   1.66281    0.076
 5390.00    1.69276   1.64485    0.075
 5391.00    1.68318   1.62894    0.075
 5392.00    1.66935   1.61461    0.075
 5393.00    1.65494   1.60059    0.076
 5394.00    1.64632   1.58684    0.075
 5395.00    1.63826   1.57531    0.074
 5396.00    1.63588   1.56973    0.074
 5397.00    1.63384   1.57349    0.075
 5398.00    1.62382   1.58595    0.074
 5399.00    1.61372   1.60119    0.074
 5400.00    1.62515   1.61064    0.074
 5401.00    1.63559   1.60762    0.074
 5402.00    1.62023   1.59049    0.074
 5403.00    1.60622   1.56389    0.074
 5404.00    1.61055   1.53699    0.073
 5405.00    1.61343   1.51884    0.073
 5406.00    1.60320   1.51409    0.073
 5407.00    1.59456   1.52197    0.072
 5408.00    1.59648   1.53881    0.073
 5409.00    1.60205   1.56127    0.073
 5410.00    1.62636   1.58746    0.073
 5411.00    1.65030   1.61572    0.073
 5412.00    1.67266   1.64368    0.073
 5413.00    1.69478   1.66876    0.073
 5414.00    1.71607   1.68932    0.073
 5415.00    1.73691   1.70461    0.074
 5416.00    1.75647   1.71417    0.074
 5417.00    1.76373   1.71773    0.073
 5418.00    1.74059   1.71560    0.073
 5419.00    1.72387   1.70900    0.072
 5420.00    1.72082   1.70016    0.072
 5421.00    1.72261   1.69161    0.072
 5422.00    1.73333   1.68549    0.073
 5423.00    1.73534   1.68306    0.073
 5424.00    1.72324   1.68366    0.073
 5425.00    1.71339   1.68424    0.073
 5426.00    1.70673   1.68033    0.073
 5427.00    1.69453   1.66852    0.072
 5428.00    1.67542   1.64978    0.073
 5429.00    1.66954   1.62901    0.073
 5430.00    1.67821   1.61109    0.073
 5431.00    1.67440   1.59829    0.073
 5432.00    1.65851   1.59063    0.073
 5433.00    1.67107   1.58890    0.073
 5434.00    1.70794   1.59588    0.074
 5435.00    1.72320   1.61421    0.074
 5436.00    1.72219   1.64386    0.073
 5437.00    1.72630   1.68104    0.073
 5438.00    1.73381   1.71888    0.073
 5439.00    1.74797   1.74981    0.073
 5440.00    1.76599   1.76792    0.074
 5441.00    1.75146   1.76962    0.074
 5442.00    1.72049   1.75418    0.073
 5443.00    1.71440   1.72426    0.073
 5444.00    1.71918   1.68664    0.073
 5445.00    1.70512   1.65159    0.073
 5446.00    1.68399   1.62952    0.072
 5447.00    1.68932   1.62601    0.072
 5448.00    1.70306   1.63836    0.072
 5449.00    1.71288   1.65692    0.072
 5450.00    1.72166   1.67018    0.072
 5451.00    1.71381   1.67082    0.072
 5452.00    1.70233   1.65842    0.072
 5453.00    1.69492   1.63900    0.072
 5454.00    1.68821   1.62251    0.072
 5455.00    1.70057   1.61766    0.072
 5456.00    1.71544   1.62696    0.073
 5457.00    1.70699   1.64529    0.072
 5458.00    1.69639   1.66304    0.071
 5459.00    1.70609   1.67222    0.071
 5460.00    1.71693   1.67063    0.071
 5461.00    1.71275   1.66201    0.071
 5462.00    1.70821   1.65331    0.071
 5463.00    1.70058   1.65044    0.071
 5464.00    1.69390   1.65501    0.070
 5465.00    1.70936   1.66443    0.071
 5466.00    1.72252   1.67425    0.071
 5467.00    1.70605   1.68054    0.071
 5468.00    1.69101   1.68123    0.071
 5469.00    1.68835   1.67607    0.071
 5470.00    1.68596   1.66588    0.071
 5471.00    1.68526   1.65149    0.072
 5472.00    1.68478   1.63362    0.072
 5473.00    1.68536   1.61361    0.072
 5474.00    1.68716   1.59410    0.072
 5475.00    1.69390   1.57910    0.072
 5476.00    1.69837   1.57236    0.071
 5477.00    1.69517   1.57511    0.071
 5478.00    1.68649   1.58482   -2.000
 5479.00    1.66220   1.59707   -2.000
 5480.00    1.64937   1.60919   -2.000
 5481.00    1.66434   1.62172   -2.000
 5482.00    1.67728   1.63604   -2.000
 5483.00    1.68600   1.65148   -2.000
 5484.00    1.67461   1.66480   -2.000
 5485.00    1.62661   1.67260   -2.000
 5486.00    1.61330   1.67416   -2.000
 5487.00    1.65523   1.67211   -2.000
 5488.00    1.69479   1.67026   -2.000
 5489.00    1.73104   1.67108   -2.000
 5490.00    1.76963   1.67438   -2.000
 5491.00    1.81111   1.67815   -2.000
 5492.00    1.81131   1.68050   -2.000
 5493.00    1.76679   1.68076   -2.000
 5494.00    1.73353   1.67945   -2.000
 5495.00    1.71102   1.67770   -2.000
 5496.00    1.71461   1.67653   -2.000
 5497.00    1.74021   1.67618   -2.000
 5498.00    1.74910   1.67567   -2.000
 5499.00    1.74559   1.67326   -2.000
 5500.00    1.73117   1.66785   -2.000
 5501.00    1.70963   1.66004   -2.000
 5502.00    1.69444   1.65171    0.070
 5503.00    1.68287   1.64445    0.070
 5504.00    1.68175   1.63914    0.070
 5505.00    1.68582   1.63650    0.069
 5506.00    1.68316   1.63680    0.069
 5507.00    1.67760   1.63891    0.069
 5508.00    1.66168   1.64009    0.069
 5509.00    1.64194   1.63739    0.068
 5510.00    1.64461   1.62992    0.069
 5511.00    1.65426   1.62027    0.069
 5512.00    1.66140   1.61334    0.069
 5513.00    1.66787   1.61388    0.069
 5514.00    1.66811   1.62417    0.069
 5515.00    1.66703   1.64311    0.069
 5516.00    1.68070   1.66699    0.069
 5517.00    1.69684   1.69111    0.070
 5518.00    1.70577   1.71121    0.070
 5519.00    1.71378   1.72460    0.071
 5520.00    1.74463   1.73054    0.071
 5521.00    1.77748   1.72953    0.071
 5522.00    1.77290   1.72225    0.070
 5523.00    1.76636   1.70911    0.070
 5524.00    1.72239   1.69095    0.069
 5525.00    1.67805   1.67022    0.068
 5526.00    1.65927   1.65145    0.069
 5527.00    1.64126   1.63996    0.069
 5528.00    1.63959   1.63900    0.069
 5529.00    1.63993   1.64756    0.068
 5530.00    1.66477   1.66067    0.069
 5531.00    1.68796   1.67240    0.070
 5532.00    1.69747   1.67910    0.070
 5533.00    1.70813   1.68101    0.070
 5534.00    1.72599   1.68121    0.070
 5535.00    1.74210   1.68317    0.070
 5536.00    1.74962   1.68890    0.070
 5537.00    1.75389   1.69827    0.070
 5538.00    1.74527   1.70930    0.069
 5539.00    1.73827   1.71906    0.078
 5540.00    1.73664   1.72482    0.184
 5541.00    1.73276   1.72540   -1.000
 5542.00    1.72257   1.72189   -1.000
 5543.00    1.71535   1.71733   -1.000
 5544.00    1.71523   1.71528 7081.499
 5545.00    1.71785   1.71818   -1.000
 5546.00    1.72612   1.72627   -1.000
 5547.00    1.73694   1.73753   -1.000
 5548.00    1.75234   1.74848   -1.000
 5549.00    1.75727   1.75558   -1.000
 5550.00    1.74581   1.75656   -1.000
 5551.00    1.73396   1.75139    0.321
 5552.00    1.72158   1.74220    0.095
 5553.00    1.72333   1.73220    0.069
 5554.00    1.74220   1.72423    0.068
 5555.00    1.74412   1.71959    0.068
 5556.00    1.72792   1.71778    0.068
 5557.00    1.71598   1.71713    0.068
 5558.00    1.70806   1.71573    0.068
 5559.00    1.69874   1.71215    0.068
 5560.00    1.68827   1.70584    0.068
 5561.00    1.68125   1.69725    0.068
 5562.00    1.67675   1.68761    0.068
 5563.00    1.67102   1.67832    0.068
 5564.00    1.66448   1.67048    0.067
 5565.00    1.65611   1.66470    0.067
 5566.00    1.64672   1.66110    0.066
 5567.00    1.64545   1.65959    0.067
 5568.00    1.64816   1.65982    0.067
 5569.00    1.65878   1.66122    0.067
 5570.00    1.67274   1.66327    0.067
 5571.00    1.68098   1.66609    0.068
 5572.00    1.68716   1.67029    0.068
 5573.00    1.68799   1.67646    0.068
 5574.00    1.68718   1.68454    0.068
 5575.00    1.68537   1.69355    0.068
 5576.00    1.68331   1.70210    0.068
 5577.00    1.69183   1.70897    0.068
 5578.00    1.70254   1.71336    0.069
 5579.00    1.70553   1.71463    0.069
 5580.00    1.70726   1.71205    0.068
 5581.00    1.68844   1.70476    0.068
 5582.00    1.66710   1.69171    0.067
 5583.00    1.64376   1.67192    0.068
 5584.00    1.62024   1.64574    0.068
 5585.00    1.59205   1.61601    0.067
 5586.00    1.56364   1.58809    0.066
 5587.00    1.56251   1.56818    0.066
 5588.00    1.56173   1.56048    0.066
 5589.00    1.55789   1.56519    0.066
 5590.00    1.55518   1.57879    0.066
 5591.00    1.57508   1.59640    0.066
 5592.00    1.59471   1.61423    0.067
 5593.00    1.61131   1.63036    0.067
 5594.00    1.62373   1.64354    0.068
 5595.00    1.60255   1.65195    0.068
 5596.00    1.58670   1.65346    0.069
 5597.00    1.60306   1.64727    0.069
 5598.00    1.61725   1.63535    0.069
 5599.00    1.62111   1.62218    0.070
 5600.00    1.62502   1.61344    0.069
 5601.00    1.62908   1.61407    0.069
 5602.00    1.63607   1.62670    0.068
 5603.00    1.65249   1.65047    0.069
 5604.00    1.67188   1.68102    0.069
 5605.00    1.69938   1.71192    0.068
 5606.00    1.71987   1.73750    0.068
 5607.00    1.72391   1.75480    0.068
 5608.00    1.73035   1.76361    0.068
 5609.00    1.74166   1.76483    0.068
 5610.00    1.73795   1.75861    0.067
 5611.00    1.70773   1.74399    0.067
 5612.00    1.68044   1.72069    0.067
 5613.00    1.65765   1.69148    0.067
 5614.00    1.64579   1.66284    0.067
 5615.00    1.64876   1.64233    0.067
 5616.00    1.64542   1.63468    0.066
 5617.00    1.63453   1.63922    0.066
 5618.00    1.63286   1.65090    0.066
 5619.00    1.64088   1.66323    0.067
 5620.00    1.64402   1.67096    0.066
 5621.00    1.64263   1.67150    0.065
 5622.00    1.64429   1.66551    0.065
 5623.00    1.64845   1.65679    0.066
 5624.00    1.65145   1.65093    0.066
 5625.00    1.65360   1.65271    0.066
 5626.00    1.66336   1.66367    0.066
 5627.00    1.67792   1.68149    0.066
 5628.00    1.69195   1.70158    0.066
 5629.00    1.70568   1.71906    0.065
 5630.00    1.70865   1.73040    0.065
 5631.00    1.70644   1.73396    0.066
 5632.00    1.69631   1.72992    0.066
 5633.00    1.68288   1.71991    0.066
 5634.00    1.66899   1.70649    0.065
 5635.00    1.65494   1.69253    0.065
 5636.00    1.64312   1.68042    0.065
 5637.00    1.63197   1.67153    0.066
 5638.00    1.62538   1.66603    0.066
 5639.00    1.61993   1.66340    0.066
 5640.00    1.62248   1.66318    0.066
 5641.00    1.62663   1.66542    0.066
 5642.00    1.64783   1.67030    0.066
 5643.00    1.67172   1.67751    0.065
 5644.00    1.68098   1.68601    0.065
 5645.00    1.68853   1.69435    0.065
 5646.00    1.66512   1.70134    0.066
 5647.00    1.63924   1.70656    0.066
 5648.00    1.65006   1.71039    0.066
 5649.00    1.66252   1.71342    0.065
 5650.00    1.68118   1.71553    0.065
 5651.00    1.69919   1.71554    0.066
 5652.00    1.68206   1.71154    0.066
 5653.00    1.66478   1.70195    0.066
 5654.00    1.64453   1.68647    0.066
 5655.00    1.62527   1.66652    0.065
 5656.00    1.61696   1.64526    0.065
 5657.00    1.60893   1.62698    0.065
 5658.00    1.60307   1.61563    0.065
 5659.00    1.59878   1.61315    0.065
 5660.00    1.60373   1.61874    0.065
 5661.00    1.60911   1.62987    0.064
 5662.00    1.61649   1.64361    0.065
 5663.00    1.62283   1.65741    0.065
 5664.00    1.62519   1.66907    0.065
 5665.00    1.63023   1.67707    0.065
 5666.00    1.64375   1.68135    0.065
 5667.00    1.65138   1.68384    0.064
 5668.00    1.64318   1.68757    0.064
 5669.00    1.63983   1.69507    0.064
 5670.00    1.64770   1.70692    0.064
 5671.00    1.66363   1.72159    0.064
 5672.00    1.69569   1.73633    0.065
 5673.00    1.71902   1.74849    0.065
 5674.00    1.72718   1.75651    0.065
 5675.00    1.73252   1.76004    0.065
 5676.00    1.73354   1.75935    0.066
 5677.00    1.73535   1.75473    0.067
 5678.00    1.73820   1.74639    0.067
 5679.00    1.72933   1.73482    0.067
 5680.00    1.70664   1.72124    0.067
 5681.00    1.69212   1.70760    0.067
 5682.00    1.68608   1.69589    0.066
 5683.00    1.67489   1.68724    0.065
 5684.00    1.65899   1.68159    0.065
 5685.00    1.64562   1.67840    0.064
 5686.00    1.63429   1.67780    0.064
 5687.00    1.64284   1.68098    0.064
 5688.00    1.66551   1.68921    0.065
 5689.00    1.68090   1.70233    0.065
 5690.00    1.69174   1.71816    0.065
 5691.00    1.70575   1.73327    0.065
 5692.00    1.72148   1.74449    0.065
 5693.00    1.73223   1.74999    0.065
 5694.00    1.74064   1.74939    0.065
 5695.00    1.72629   1.74321    0.065
 5696.00    1.70265   1.73244    0.066
 5697.00    1.68885   1.71840    0.065
 5698.00    1.67850   1.70295    0.065
 5699.00    1.67252   1.68836    0.065
 5700.00    1.66784   1.67676    0.065
 5701.00    1.65810   1.66918    0.065
 5702.00    1.64713   1.66475    0.064
 5703.00    1.63650   1.66077    0.064
 5704.00    1.62595   1.65399    0.064
 5705.00    1.61329   1.64251    0.064
 5706.00    1.60031   1.62715    0.063
 5707.00    1.60175   1.61134    0.063
 5708.00    1.60483   1.59974    0.064
 5709.00    1.61511   1.59638    0.064
 5710.00    1.62594   1.60336    0.064
 5711.00    1.64007   1.62021    0.064
 5712.00    1.65433   1.64419    0.064
 5713.00    1.66801   1.67108    0.064
 5714.00    1.68148   1.69670    0.064
 5715.00    1.68655   1.71824    0.064
 5716.00    1.69257   1.73502    0.064
 5717.00    1.71491   1.74812    0.065
 5718.00    1.73671   1.75928    0.065
 5719.00    1.75271   1.76961    0.065
 5720.00    1.76891   1.77905    0.065
 5721.00    1.78656   1.78638    0.065
 5722.00    1.80114   1.78990    0.065
 5723.00    1.79821   1.78847    0.065
 5724.00    1.79069   1.78228    0.065
 5725.00    1.76231   1.77313    0.065
 5726.00    1.73897   1.76369    0.064
 5727.00    1.73440   1.75627    0.064
 5728.00    1.73299   1.75187    0.064
 5729.00    1.74141   1.75027    0.064
 5730.00    1.74849   1.75101    0.064
 5731.00    1.75202   1.75400    0.064
 5732.00    1.75376   1.75908    0.064
 5733.00    1.75145   1.76533    0.065
 5734.00    1.74823   1.77102    0.065
 5735.00    1.74323   1.77455    0.065
 5736.00    1.74323   1.77532    0.065
 5737.00    1.75179   1.77388    0.064
 5738.00    1.75347   1.77137    0.063
 5739.00    1.74480   1.76889    0.064
 5740.00    1.74217   1.76724    0.000
 5741.00    1.74749   1.76698    0.000
 5742.00    1.75216   1.76823    0.000
 5743.00    1.75609   1.77036    0.000
 5744.00    1.76063   1.77198    0.000
 5745.00    1.76579   1.77164    0.000
 5746.00    1.77053   1.76886    0.000
 5747.00    1.77488   1.76430    0.000
 5748.00    1.76608   1.75889    0.000
 5749.00    1.74680   1.75265    0.000
 5750.00    1.73295   1.74490    0.000
 5751.00    1.72290   1.73581    0.000
 5752.00    1.72283   1.72771    0.000
 5753.00    1.72889   1.72435    0.000
 5754.00    1.72442   1.72822    0.000
 5755.00    1.71430   1.73827    0.000
 5756.00    1.70873   1.74971    0.000
 5757.00    1.70527   1.75671    0.000
 5758.00    1.70602   1.75556    0.000
 5759.00    1.70845   1.74688    0.000
 5760.00    1.70782   1.73524    0.000
 5761.00    1.70615   1.72691    0.000
 5762.00    1.71531   1.72675    0.000
 5763.00    1.72759   1.73595    0.000
 5764.00    1.74475   1.75167    0.000
 5765.00    1.76307   1.76885    0.000
 5766.00    1.77573   1.78270    0.000
 5767.00    1.78730   1.79055    0.000
 5768.00    1.78247   1.79215    0.000
 5769.00    1.77521   1.78895    0.000
 5770.00    1.78551   1.78300    0.000
 5771.00    1.79773   1.77631    0.000
 5772.00    1.78790   1.77044    0.000
 5773.00    1.77650   1.76626    0.000
 5774.00    1.76317   1.76350    0.000
 5775.00    1.74977   1.76056    0.000
 5776.00    1.74445   1.75476    0.000
 5777.00    1.73869   1.74338    0.000
 5778.00    1.71630   1.72526    0.000
 5779.00    1.69435   1.70194    0.000
 5780.00    1.67948   1.67741    0.000
 5781.00    1.66679   1.65660    0.000
 5782.00    1.67613   1.64340    0.000
 5783.00    1.68457   1.63958    0.000
 5784.00    1.68637   1.64495    0.000
 5785.00    1.68783   1.65780    0.000
 5786.00    1.68742   1.67523    0.000
 5787.00    1.69030   1.69367    0.000
 5788.00    1.70772   1.70999    0.000
 5789.00    1.72131   1.72278    0.000
 5790.00    1.72094   1.73276    0.000
 5791.00    1.72242   1.74169   -2.000
 5792.00    1.72959   1.75061   -2.000
 5793.00    1.73629   1.75895   -2.000
 5794.00    1.74178   1.76520   -2.000
 5795.00    1.74312   1.76871   -2.000
 5796.00    1.73518   1.77077   -2.000
 5797.00    1.73411   1.77402   -2.000
 5798.00    1.74636   1.78044   -2.000
 5799.00    1.75595   1.78946   -2.000
 5800.00    1.76107   1.79794   -2.000
 5801.00    1.77115   1.80214   -2.000
 5802.00    1.78857   1.80013   -2.000
 5803.00    1.79853   1.79299   -2.000
 5804.00    1.79880   1.78411   -2.000
 5805.00    1.79363   1.77720   -2.000
 5806.00    1.78224   1.77452   -2.000
 5807.00    1.76883   1.77618   -2.000
 5808.00    1.75337   1.78066   -2.000
 5809.00    1.74601   1.78572   -2.000
 5810.00    1.74587   1.78920   -2.000
 5811.00    1.74931   1.78954    0.000
 5812.00    1.75557   1.78630    0.000
 5813.00    1.76272   1.78055    0.000
 5814.00    1.77047   1.77476    0.000
 5815.00    1.77188   1.77201    0.000
 5816.00    1.76945   1.77448    0.000
 5817.00    1.77482   1.78219    0.000
 5818.00    1.78432   1.79295    0.000
 5819.00    1.79589   1.80354    0.000
 5820.00    1.80842   1.81141    0.000
 5821.00    1.81502   1.81572    0.000
 5822.00    1.81928   1.81727    0.000
 5823.00    1.81582   1.81757    0.000
 5824.00    1.80977   1.81788    0.000
 5825.00    1.80086   1.81880    0.000
 5826.00    1.79113   1.82028    0.000
 5827.00    1.80213   1.82190    0.000
 5828.00    1.81794   1.82307    0.000
 5829.00    1.81402   1.82317    0.000
 5830.00    1.80641   1.82174    0.000
 5831.00    1.79166   1.81869    0.000
 5832.00    1.77587   1.81448    0.000
 5833.00    1.77265   1.80999    0.000
 5834.00    1.77075   1.80624    0.000
 5835.00    1.76799   1.80402    0.000
 5836.00    1.76516   1.80378    0.000
 5837.00    1.76030   1.80569    0.000
 5838.00    1.75537   1.80966    0.000
 5839.00    1.76122   1.81513    0.000
 5840.00    1.76701   1.82079    0.000
 5841.00    1.77105   1.82479    0.000
 5842.00    1.77548   1.82532    0.000
 5843.00    1.78578   1.82149    0.000
 5844.00    1.79381   1.81365    0.000
 5845.00    1.77987   1.80331    0.000
 5846.00    1.76553   1.79236    0.000
 5847.00    1.74843   1.78214    0.000
 5848.00    1.73460   1.77280    0.000
 5849.00    1.73847   1.76344    0.000
 5850.00    1.73775   1.75296    0.000
 5851.00    1.71713   1.74101    0.000
 5852.00    1.69746   1.72822    0.000
 5853.00    1.68118   1.71566    0.000
 5854.00    1.66816   1.70421    0.000
 5855.00    1.66489   1.69464    0.000
 5856.00    1.66143   1.68813    0.000
 5857.00    1.65746   1.68621    0.000
 5858.00    1.65848   1.68985    0.000
 5859.00    1.67049   1.69838    0.000
 5860.00    1.67965   1.70952    0.000
 5861.00    1.68342   1.72044    0.000
 5862.00    1.68511   1.72917    0.000
 5863.00    1.68337   1.73517    0.000
 5864.00    1.68679   1.73916    0.000
 5865.00    1.69774   1.74265    0.000
 5866.00    1.70887   1.74716    0.000
 5867.00    1.72025   1.75357    0.000
 5868.00    1.72449   1.76143    0.000
 5869.00    1.72066   1.76918    0.000
 5870.00    1.71940   1.77504    0.000
 5871.00    1.72069   1.77802    0.000
 5872.00    1.71719   1.77816    0.000
 5873.00    1.70950   1.77606    0.000
 5874.00    1.70379   1.77210    0.000
 5875.00    1.69960   1.76626    0.000
 5876.00    1.68711   1.75843    0.000
 5877.00    1.66895   1.74904    0.000
 5878.00    1.65697   1.73919    0.000
 5879.00    1.64867   1.73025    0.000
 5880.00    1.63966   1.72304    0.000
 5881.00    1.63029   1.71712    0.000
 5882.00    1.60776   1.71037    0.000
 5883.00    1.57931   1.69907    0.000
 5884.00    1.55088   1.67830    0.000
 5885.00    1.52246   1.64339    0.000
 5886.00    1.48631   1.59262    0.000
 5887.00    1.44761   1.53024    0.000
 5888.00    1.40635   1.46710    0.000
 5889.00    1.36437   1.41675    0.000
 5890.00    1.34589   1.38855    0.000
 5891.00    1.33276   1.38250    0.000
 5892.00    1.33243   1.39005    0.000
 5893.00    1.33443   1.40135    0.000
 5894.00    1.35733   1.41232    0.000
 5895.00    1.38316   1.42660    0.000
 5896.00    1.40187   1.45097    0.000
 5897.00    1.41986   1.48859    0.000
 5898.00    1.45135   1.53638    0.000
 5899.00    1.48369   1.58658    0.000
 5900.00    1.52704   1.63142    0.000
 5901.00    1.57064   1.66617    0.060
 5902.00    1.59288   1.68995    0.061
 5903.00    1.61428   1.70458    0.061
 5904.00    1.61207   1.71310    0.061
 5905.00    1.61107   1.71852    0.060
 5906.00    1.62735   1.72300    0.060
 5907.00    1.64287   1.72736    0.061
 5908.00    1.65125   1.73112    0.061
 5909.00    1.65867   1.73293    0.061
 5910.00    1.65952   1.73135    0.060
 5911.00    1.65935   1.72577    0.060
 5912.00    1.65379   1.71701    0.059
 5913.00    1.64779   1.70751    0.059
 5914.00    1.63993   1.70042    0.059
 5915.00    1.63560   1.69823    0.059
 5916.00    1.64359   1.70158    0.059
 5917.00    1.65427   1.70903    0.060
 5918.00    1.67282   1.71806    0.060
 5919.00    1.68461   1.72627    0.060
 5920.00    1.67942   1.73244    0.060
 5921.00    1.67318   1.73665    0.059
 5922.00    1.66470   1.73962    0.059
 5923.00    1.66185   1.74185    0.059
 5924.00    1.66957   1.74306    0.060
 5925.00    1.67327   1.74242    0.060
 5926.00    1.67038   1.73939    0.060
 5927.00    1.66531   1.73448    0.060
 5928.00    1.65709   1.72932    0.060
 5929.00    1.65252   1.72578    0.060
 5930.00    1.65255   1.72478    0.061
 5931.00    1.65567   1.72590    0.061
 5932.00    1.66222   1.72797    0.060
 5933.00    1.66633   1.73025    0.060
 5934.00    1.66803   1.73288    0.060
 5935.00    1.66923   1.73635    0.060
 5936.00    1.66998   1.74042    0.060
 5937.00    1.67227   1.74389    0.060
 5938.00    1.67574   1.74534    0.060
 5939.00    1.67927   1.74437    0.060
 5940.00    1.68283   1.74205    0.059
 5941.00    1.68375   1.74043    0.059
 5942.00    1.68311   1.74097    0.060
 5943.00    1.67898   1.74354    0.059
 5944.00    1.67306   1.74640    0.059
 5945.00    1.67123   1.74727    0.059
 5946.00    1.67120   1.74487    0.059
 5947.00    1.67514   1.73962    0.059
 5948.00    1.68060   1.73328    0.059
 5949.00    1.68824   1.72767    0.059
 5950.00    1.69658   1.72375    0.060
 5951.00    1.69195   1.72148    0.059
 5952.00    1.68381   1.72037    0.059
 5953.00    1.67784   1.71997    0.059
 5954.00    1.67235   1.72019    0.060
 5955.00    1.67140   1.72135    0.060
 5956.00    1.67126   1.72425    0.060
 5957.00    1.67818   1.72972    0.060
 5958.00    1.68606   1.73800    0.060
 5959.00    1.69239   1.74815    0.060
 5960.00    1.69857   1.75821    0.060
 5961.00    1.69925   1.76608    0.060
 5962.00    1.69960   1.77049    0.060
 5963.00    1.69433   1.77169    0.060
 5964.00    1.68895   1.77116    0.060
 5965.00    1.68834   1.77096    0.060
 5966.00    1.68800   1.77262    0.060
 5967.00    1.69444   1.77653    0.060
 5968.00    1.70073   1.78180    0.059
 5969.00    1.70499   1.78672    0.059
 5970.00    1.70897   1.78941    0.059
 5971.00    1.71029   1.78834    0.059
 5972.00    1.70985   1.78284    0.060
 5973.00    1.69778   1.77334    0.059
 5974.00    1.68580   1.76152    0.059
 5975.00    1.67428   1.75000    0.059
 5976.00    1.66478   1.74144    0.059
 5977.00    1.66363   1.73734    0.058
 5978.00    1.66376   1.73716    0.058
 5979.00    1.66828   1.73849    0.059
 5980.00    1.67322   1.73826    0.059
 5981.00    1.67935   1.73462    0.059
 5982.00    1.68204   1.72809    0.059
 5983.00    1.67627   1.72133    0.059
 5984.00    1.67083   1.71755    0.059
 5985.00    1.66608   1.71868    0.058
 5986.00    1.66819   1.72444    0.058
 5987.00    1.68297   1.73287    0.059
 5988.00    1.68992   1.74174    0.060
 5989.00    1.68426   1.74963    0.060
 5990.00    1.68037   1.75627    0.059
 5991.00    1.67896   1.76189    0.059
 5992.00    1.67914   1.76636    0.059
 5993.00    1.68129   1.76887    0.059
 5994.00    1.67938   1.76842    0.059
 5995.00    1.67303   1.76481    0.059
 5996.00    1.67423   1.75906    0.058
 5997.00    1.68274   1.75303    0.058
 5998.00    1.68861   1.74824    0.059
 5999.00    1.69223   1.74511    0.059
 6000.00    1.69236   1.74298    0.059
 6001.00    1.68988   1.74083    0.059
 6002.00    1.68181   1.73783    0.059
 6003.00    1.67005   1.73357    0.059
 6004.00    1.66304   1.72807    0.059
 6005.00    1.65878   1.72195    0.059
 6006.00    1.65721   1.71670    0.059
 6007.00    1.65700   1.71408    0.058
 6008.00    1.65643   1.71512    0.059
 6009.00    1.65570   1.71907    0.059
 6010.00    1.65057   1.72373    0.059
 6011.00    1.64380   1.72682    0.058
 6012.00    1.64344   1.72734    0.058
 6013.00    1.64511   1.72575    0.058
 6014.00    1.64691   1.72319    0.059
 6015.00    1.64876   1.72047    0.059
 6016.00    1.63972   1.71777    0.059
 6017.00    1.62832   1.71497    0.059
 6018.00    1.61502   1.71223    0.059
 6019.00    1.60139   1.71023    0.059
 6020.00    1.61214   1.71001    0.059
 6021.00    1.62607   1.71247    0.060
 6022.00    1.64649   1.71796    0.060
 6023.00    1.66751   1.72605    0.060
 6024.00    1.66920   1.73585    0.060
 6025.00    1.66981   1.74633    0.059
 6026.00    1.67746   1.75671    0.059
 6027.00    1.68522   1.76650    0.059
 6028.00    1.68960   1.77539    0.059
 6029.00    1.69393   1.78321    0.058
 6030.00    1.69721   1.78991    0.058
 6031.00    1.70107   1.79548    0.058
 6032.00    1.71243   1.79992    0.058
 6033.00    1.72374   1.80319    0.059
 6034.00    1.73452   1.80513    0.059
 6035.00    1.74226   1.80565    0.059
 6036.00    1.73049   1.80474    0.059
 6037.00    1.71955   1.80266    0.059
 6038.00    1.71269   1.80001    0.058
 6039.00    1.70683   1.79774    0.058
 6040.00    1.70500   1.79692    0.058
 6041.00    1.70473   1.79832    0.058
 6042.00    1.70970   1.80202    0.058
 6043.00    1.71450   1.80731    0.059
 6044.00    1.71880   1.81303    0.058
 6045.00    1.72492   1.81799    0.058
 6046.00    1.73543   1.82145    0.059
 6047.00    1.74416   1.82312    0.059
 6048.00    1.74917   1.82297    0.060
 6049.00    1.74800   1.82095    0.060
 6050.00    1.73556   1.81696    0.059
 6051.00    1.72241   1.81098    0.059
 6052.00    1.70810   1.80346    0.059
 6053.00    1.70110   1.79543    0.059
 6054.00    1.70428   1.78837    0.059
 6055.00    1.70449   1.78374    0.059
 6056.00    1.70105   1.78234    0.059
 6057.00    1.69585   1.78383    0.059
 6058.00    1.68874   1.78660    0.059
 6059.00    1.68422   1.78828    0.059
 6060.00    1.68219   1.78669    0.059
 6061.00    1.68478   1.78108    0.059
 6062.00    1.69127   1.77273    0.059
 6063.00    1.69074   1.76485    0.059
 6064.00    1.68503   1.76128    0.058
 6065.00    1.68060   1.76475    0.058
 6066.00    1.67701   1.77545    0.058
 6067.00    1.68541   1.79100    0.058
 6068.00    1.70064   1.80764    0.057
 6069.00    1.71888   1.82202    0.058
 6070.00    1.73862   1.83222    0.058
 6071.00    1.74359   1.83776    0.058
 6072.00    1.74224   1.83887    0.058
 6073.00    1.73754   1.83585    0.058
 6074.00    1.73162   1.82893    0.059
 6075.00    1.72242   1.81858    0.059
 6076.00    1.71221   1.80581    0.059
 6077.00    1.70069   1.79218    0.059
 6078.00    1.68882   1.77938    0.058
 6079.00    1.68328   1.76871    0.058
 6080.00    1.67908   1.76079    0.058
 6081.00    1.67569   1.75574    0.058
 6082.00    1.67243   1.75335    0.058
 6083.00    1.66666   1.75324    0.058
 6084.00    1.66057   1.75477    0.058
 6085.00    1.66033   1.75695    0.059
 6086.00    1.66061   1.75860    0.059
 6087.00    1.66475   1.75875    0.058
 6088.00    1.66909   1.75724    0.058
 6089.00    1.66996   1.75495    0.058
 6090.00    1.67072   1.75355    0.058
 6091.00    1.66808   1.75467    0.058
 6092.00    1.66527   1.75897    0.057
 6093.00    1.65884   1.76584    0.057
 6094.00    1.65325   1.77360    0.057
 6095.00    1.65796   1.78017    0.057
 6096.00    1.66196   1.78367    0.057
 6097.00    1.66008   1.78252    0.057
 6098.00    1.65742   1.77572    0.057
 6099.00    1.64997   1.76334    0.057
 6100.00    1.64330   1.74743    0.057
 6101.00    1.64042   1.73217    0.057
 6102.00    1.63907   1.72245    0.057
 6103.00    1.64377   1.72148    0.057
 6104.00    1.64798   1.72909    0.057
 6105.00    1.65057   1.74200    0.058
 6106.00    1.65488   1.75590    0.059
 6107.00    1.66396   1.76768    0.059
 6108.00    1.67150   1.77630    0.059
 6109.00    1.67540   1.78227    0.059
 6110.00    1.67778   1.78665    0.059
 6111.00    1.67704   1.79025    0.058
 6112.00    1.67744   1.79319    0.058
 6113.00    1.67992   1.79490    0.059
 6114.00    1.68100   1.79445    0.059
 6115.00    1.67991   1.79085    0.059
 6116.00    1.67745   1.78338    0.058
 6117.00    1.67310   1.77182    0.058
 6118.00    1.66531   1.75685    0.058
 6119.00    1.65336   1.74052    0.058
 6120.00    1.64392   1.72618    0.058
 6121.00    1.63716   1.71736    0.058
 6122.00    1.63513   1.71604    0.058
 6123.00    1.63756   1.72149    0.058
 6124.00    1.63930   1.73075    0.058
 6125.00    1.64047   1.74047    0.058
 6126.00    1.63979   1.74875    0.058
 6127.00    1.63778   1.75557    0.058
 6128.00    1.64287   1.76168    0.057
 6129.00    1.65253   1.76701    0.057
 6130.00    1.65521   1.76973    0.057
 6131.00    1.65397   1.76670    0.057
 6132.00    1.63637   1.75507    0.057
 6133.00    1.61079   1.73434    0.057
 6134.00    1.59001   1.70778    0.058
 6135.00    1.57124   1.68190    0.058
 6136.00    1.57308   1.66410    0.058
 6137.00    1.58235   1.65923    0.059
 6138.00    1.59701   1.66747    0.059
 6139.00    1.61331   1.68487    0.060
 6140.00    1.62761   1.70609    0.059
 6141.00    1.64141   1.72701    0.059
 6142.00    1.65265   1.74545    0.059
 6143.00    1.66337   1.76029    0.059
 6144.00    1.67066   1.77044    0.059
 6145.00    1.67739   1.77491    0.058
 6146.00    1.67817   1.77366    0.058
 6147.00    1.67822   1.76828    0.058
 6148.00    1.66927   1.76143    0.057
 6149.00    1.65958   1.75579    0.057
 6150.00    1.65214   1.75270    0.057
 6151.00    1.64481   1.75181    0.057
 6152.00    1.63159   1.75159    0.057
 6153.00    1.61824   1.75024    0.058
 6154.00    1.60267   1.74635    0.057
 6155.00    1.58769   1.73874    0.056
 6156.00    1.58417   1.72602    0.057
 6157.00    1.57994   1.70675    0.057
 6158.00    1.56744   1.68045    0.057
 6159.00    1.55420   1.64905    0.058
 6160.00    1.53504   1.61751    0.058
 6161.00    1.51749   1.59245    0.058
 6162.00    1.50964   1.57927    0.058
 6163.00    1.50291   1.57946    0.057
 6164.00    1.50155   1.58975    0.057
 6165.00    1.49996   1.60388    0.057
 6166.00    1.49750   1.61606    0.057
 6167.00    1.49986   1.62361    0.057
 6168.00    1.51778   1.62772    0.058
 6169.00    1.53382   1.63184    0.058
 6170.00    1.54476   1.63892    0.058
 6171.00    1.55515   1.64970    0.058
 6172.00    1.56428   1.66262    0.058
 6173.00    1.57083   1.67530    0.057
 6174.00    1.57215   1.68611    0.057
 6175.00    1.57048   1.69486    0.057
 6176.00    1.56356   1.70230    0.057
 6177.00    1.55684   1.70931    0.056
 6178.00    1.55043   1.71630    0.056
 6179.00    1.54377   1.72307    0.056
 6180.00    1.53678   1.72891    0.056
 6181.00    1.53626   1.73274    0.056
 6182.00    1.54345   1.73341    0.056
 6183.00    1.55242   1.72993    0.056
 6184.00    1.56327   1.72189    0.056
 6185.00    1.56661   1.70966    0.056
 6186.00    1.56296   1.69430    0.057
 6187.00    1.55297   1.67745    0.058
 6188.00    1.53780   1.66124    0.058
 6189.00    1.52741   1.64835    0.058
 6190.00    1.52047   1.64161    0.057
 6191.00    1.51700   1.64307    0.057
 6192.00    1.51571   1.65275    0.057
 6193.00    1.51574   1.66811    0.057
 6194.00    1.51650   1.68479    0.058
 6195.00    1.52103   1.69833    0.060
 6196.00    1.52737   1.70603   -2.000
 6197.00    1.55505   1.70790   -2.000
 6198.00    1.59158   1.70641   -2.000
 6199.00    1.62258   1.70506   -2.000
 6200.00    1.65163   1.70664   -2.000
 6201.00    1.65321   1.71204   -2.000
 6202.00    1.64657   1.72022   -2.000
 6203.00    1.61139   1.72910   -2.000
 6204.00    1.56911   1.73669   -2.000
 6205.00    1.55605   1.74169   -2.000
 6206.00    1.54888   1.74339   -2.000
 6207.00    1.56252   1.74126   -2.000
 6208.00    1.57945   1.73472    0.058
 6209.00    1.57276   1.72333    0.058
 6210.00    1.56330   1.70728    0.058
 6211.00    1.54235   1.68784    0.057
 6212.00    1.52048   1.66746    0.056
 6213.00    1.50384   1.64924    0.056
 6214.00    1.48744   1.63585    0.056
 6215.00    1.49264   1.62841    0.056
 6216.00    1.49822   1.62625    0.056
 6217.00    1.51115   1.62756    0.056
 6218.00    1.52358   1.63066    0.057
 6219.00    1.52697   1.63474    0.057
 6220.00    1.53032   1.63979    0.057
 6221.00    1.53336   1.64586    0.057
 6222.00    1.53617   1.65242    0.057
 6223.00    1.53718   1.65823    0.057
 6224.00    1.53783   1.66163    0.057
 6225.00    1.53644   1.66095    0.057
 6226.00    1.53394   1.65515    0.057
 6227.00    1.52630   1.64447    0.057
 6228.00    1.51911   1.63104    0.057
 6229.00    1.51361   1.61878    0.057
 6230.00    1.51088   1.61217    0.057
 6231.00    1.51691   1.61415    0.056
 6232.00    1.52252   1.62462    0.056
 6233.00    1.52700   1.64012    0.056
 6234.00    1.52970   1.65528    0.056
 6235.00    1.52829   1.66516    0.056
 6236.00    1.52624   1.66709    0.055
 6237.00    1.52290   1.66141    0.055
 6238.00    1.51772   1.65053    0.055
 6239.00    1.50935   1.63762    0.055
 6240.00    1.50216   1.62527    0.055
 6241.00    1.49675   1.61517    0.056
 6242.00    1.49152   1.60842    0.056
 6243.00    1.48653   1.60592    0.056
 6244.00    1.48759   1.60836    0.056
 6245.00    1.49576   1.61563    0.056
 6246.00    1.50166   1.62616    0.056
 6247.00    1.50522   1.63693    0.056
 6248.00    1.50033   1.64422    0.056
 6249.00    1.48770   1.64512    0.056
 6250.00    1.47830   1.63877    0.056
 6251.00    1.47151   1.62660    0.056
 6252.00    1.46501   1.61156    0.057
 6253.00    1.45874   1.59671    0.057
 6254.00    1.45533   1.58428    0.057
 6255.00    1.45370   1.57573    0.057
 6256.00    1.46047   1.57221    0.056
 6257.00    1.47181   1.57477    0.056
 6258.00    1.47834   1.58405    0.057
 6259.00    1.48260   1.59935    0.058
 6260.00    1.50244   1.61838    0.060
 6261.00    1.52862   1.63777    0.064
 6262.00    1.55238   1.65428    0.066
 6263.00    1.57530   1.66608    0.068
 6264.00    1.57190   1.67310    0.066
 6265.00    1.56079   1.67656    0.064
 6266.00    1.55055   1.67813    0.061
 6267.00    1.54053   1.67923    0.059
 6268.00    1.53965   1.68076    0.058
 6269.00    1.54056   1.68322    0.057
 6270.00    1.54506   1.68672    0.057
 6271.00    1.55010   1.69094    0.056
 6272.00    1.56364   1.69517    0.056
 6273.00    1.57813   1.69843    0.057
 6274.00    1.58026   1.69977    0.057
 6275.00    1.58146   1.69855    0.056
 6276.00    1.56917   1.69466    0.056
 6277.00    1.55634   1.68869    0.056
 6278.00    1.54748   1.68203    0.056
 6279.00    1.53893   1.67664    0.056
 6280.00    1.54105   1.67440    0.000
 6281.00    1.54376   1.67645    0.000
 6282.00    1.55637   1.68278    0.000
 6283.00    1.56919   1.69233    0.000
 6284.00    1.58423   1.70352    0.000
 6285.00    1.59820   1.71462    0.000
 6286.00    1.60418   1.72408    0.000
 6287.00    1.60927   1.73055    0.000
 6288.00    1.60924   1.73314    0.000
 6289.00    1.60723   1.73172    0.000
 6290.00    1.59622   1.72702    0.000
 6291.00    1.58561   1.72016    0.000
 6292.00    1.57646   1.71219    0.000
 6293.00    1.56843   1.70367    0.000
 6294.00    1.56383   1.69480    0.000
 6295.00    1.56028   1.68583    0.000
 6296.00    1.55947   1.67727    0.000
 6297.00    1.56048   1.66980    0.000
 6298.00    1.56558   1.66400    0.000
 6299.00    1.56966   1.66038    0.000
 6300.00    1.57171   1.65950    0.000
 6301.00    1.56946   1.66201    0.000
 6302.00    1.55987   1.66837    0.000
 6303.00    1.55318   1.67838    0.000
 6304.00    1.55082   1.69088    0.000
 6305.00    1.55070   1.70388    0.000
 6306.00    1.55351   1.71510    0.000
 6307.00    1.55766   1.72260    0.000
 6308.00    1.56336   1.72523    0.000
 6309.00    1.56793   1.72297    0.000
 6310.00    1.57133   1.71664    0.000
 6311.00    1.56823   1.70753    0.000
 6312.00    1.55926   1.69686    0.000
 6313.00    1.54882   1.68570    0.000
 6314.00    1.53719   1.67505    0.000
 6315.00    1.53010   1.66603    0.000
 6316.00    1.52619   1.65995    0.000
 6317.00    1.52614   1.65798    0.000
 6318.00    1.52844   1.66079    0.000
 6319.00    1.53369   1.66822    0.000
 6320.00    1.54052   1.67922    0.000
 6321.00    1.54377   1.69223    0.056
 6322.00    1.54536   1.70556    0.055
 6323.00    1.54515   1.71777    0.056
 6324.00    1.54422   1.72786    0.056
 6325.00    1.55163   1.73539    0.056
 6326.00    1.56188   1.74040    0.056
 6327.00    1.57677   1.74333    0.056
 6328.00    1.59300   1.74470    0.056
 6329.00    1.60024   1.74468    0.056
 6330.00    1.60533   1.74288    0.055
 6331.00    1.59943   1.73845    0.055
 6332.00    1.59142   1.73077    0.056
 6333.00    1.57476   1.72029    0.056
 6334.00    1.55682   1.70901    0.055
 6335.00    1.54790   1.69986    0.055
 6336.00    1.53996   1.69542    0.055
 6337.00    1.54242   1.69656    0.055
 6338.00    1.54562   1.70191    0.055
 6339.00    1.54838   1.70855    0.055
 6340.00    1.55113   1.71353    0.054
 6341.00    1.54865   1.71532    0.055
 6342.00    1.54625   1.71441    0.055
 6343.00    1.54737   1.71287    0.055
 6344.00    1.54894   1.71307    0.055
 6345.00    1.55776   1.71649    0.055
 6346.00    1.56630   1.72306    0.056
 6347.00    1.57207   1.73131    0.056
 6348.00    1.57733   1.73905    0.056
 6349.00    1.57885   1.74416    0.056
 6350.00    1.58096   1.74517    0.056
 6351.00    1.58631   1.74156    0.056
 6352.00    1.58953   1.73373    0.057
 6353.00    1.58331   1.72276    0.057
 6354.00    1.57375   1.70992    0.056
 6355.00    1.55203   1.69627    0.056
 6356.00    1.53196   1.68253    0.056
 6357.00    1.51692   1.66929    0.056
 6358.00    1.50433   1.65732    0.056
 6359.00    1.49810   1.64771    0.055
 6360.00    1.49444   1.64175    0.055
 6361.00    1.49653   1.64056    0.055
 6362.00    1.50390   1.64479    0.055
 6363.00    1.52146   1.65424    0.056
 6364.00    1.53893   1.66785    0.056
 6365.00    1.55626   1.68383    0.056
 6366.00    1.57166   1.70022    0.057
 6367.00    1.58422   1.71539    0.057
 6368.00    1.59572   1.72851    0.057
 6369.00    1.60584   1.73954    0.057
 6370.00    1.61104   1.74887    0.057
 6371.00    1.61060   1.75675    0.057
 6372.00    1.60495   1.76300    0.057
 6373.00    1.59404   1.76698    0.056
 6374.00    1.58273   1.76805    0.056
 6375.00    1.57107   1.76599    0.056
 6376.00    1.56624   1.76126    0.056
 6377.00    1.56676   1.75504    0.056
 6378.00    1.56818   1.74888    0.056
 6379.00    1.57024   1.74417    0.056
 6380.00    1.57805   1.74175    0.056
 6381.00    1.58934   1.74169    0.056
 6382.00    1.59677   1.74353    0.056
 6383.00    1.60216   1.74655    0.055
 6384.00    1.60179   1.75001    0.055
 6385.00    1.59878   1.75320    0.055
 6386.00    1.59589   1.75523    0.055
 6387.00    1.59303   1.75506    0.055
 6388.00    1.58898   1.75171    0.055
 6389.00    1.58452   1.74482    0.055
 6390.00    1.57545   1.73528    0.055
 6391.00    1.56507   1.72528    0.055
 6392.00    1.56152   1.71758    0.055
 6393.00    1.55955   1.71417    0.056
 6394.00    1.56226   1.71504    0.057
 6395.00    1.56585   1.71806    0.058
 6396.00    1.56030   1.72038    0.058
 6397.00    1.55344   1.72041    0.058
 6398.00    1.55224   1.71899    0.057
 6399.00    1.55164   1.71884    0.057
 6400.00    1.55941   1.72252    0.057
 6401.00    1.56775   1.73061    0.058
 6402.00    1.57997   1.74099    0.057
 6403.00    1.59231   1.75014    0.057
 6404.00    1.58909   1.75501    0.056
 6405.00    1.58552   1.75458    0.056
 6406.00    1.57122   1.74990    0.056
 6407.00    1.55776   1.74319    0.056
 6408.00    1.55683   1.73662    0.056
 6409.00    1.55614   1.73160    0.056
 6410.00    1.55761   1.72875    0.055
 6411.00    1.55817   1.72821    0.054
 6412.00    1.55231   1.72967    0.055
 6413.00    1.54908   1.73240    0.055
 6414.00    1.56007   1.73512    0.055
 6415.00    1.56909   1.73630    0.055
 6416.00    1.56969   1.73482    0.055
 6417.00    1.56900   1.73073    0.056
 6418.00    1.56371   1.72564    0.056
 6419.00    1.56031   1.72222    0.056
 6420.00    1.56252   1.72303    0.057
 6421.00    1.56582   1.72924    0.057
 6422.00    1.57186   1.73999    0.056
 6423.00    1.57808   1.75266    0.056
 6424.00    1.58471   1.76386    0.056
 6425.00    1.58716   1.77061    0.056
 6426.00    1.58165   1.77118    0.056
 6427.00    1.57681   1.76562    0.057
 6428.00    1.57307   1.75587    0.057
 6429.00    1.56974   1.74523    0.057
 6430.00    1.56701   1.73727    0.057
 6431.00    1.56556   1.73435    0.057
 6432.00    1.56578   1.73657    0.057
 6433.00    1.56506   1.74181    0.056
 6434.00    1.56330   1.74686    0.055
 6435.00    1.56561   1.74928    0.055
 6436.00    1.57195   1.74877    0.055
 6437.00    1.57763   1.74738    0.055
 6438.00    1.58274   1.74819    0.055
 6439.00    1.58703   1.75354    0.055
 6440.00    1.59071   1.76366    0.056
 6441.00    1.59732   1.77651    0.056
 6442.00    1.60594   1.78865    0.056
 6443.00    1.60436   1.79637    0.056
 6444.00    1.59672   1.79690    0.056
 6445.00    1.58496   1.78895    0.056
 6446.00    1.57106   1.77339    0.057
 6447.00    1.55437   1.75331    0.057
 6448.00    1.53643   1.73348    0.058
 6449.00    1.53344   1.71872    0.060
 6450.00    1.53624   1.71214    0.064
 6451.00    1.54997   1.71385    0.064
 6452.00    1.56729   1.72144    0.063
 6453.00    1.57516   1.73165    0.063
 6454.00    1.58042   1.74198    0.062
 6455.00    1.57693   1.75118    0.060
 6456.00    1.57144   1.75871    0.057
 6457.00    1.56597   1.76373    0.056
 6458.00    1.56050   1.76487    0.055
 6459.00    1.55533   1.76134    0.055
 6460.00    1.55021   1.75402    0.055
 6461.00    1.54943   1.74583    0.055
 6462.00    1.54909   1.74051    0.054
 6463.00    1.55351   1.74072    0.054
 6464.00    1.55823   1.74662    0.055
 6465.00    1.57608   1.75590    0.055
 6466.00    1.59428   1.76509    0.056
 6467.00    1.60272   1.77123    0.056
 6468.00    1.61084   1.77315    0.056
 6469.00    1.61004   1.77155    0.057
 6470.00    1.60948   1.76822    0.057
 6471.00    1.61215   1.76495    0.057
 6472.00    1.61516   1.76295    0.057
 6473.00    1.62131   1.76255    0.058
 6474.00    1.62603   1.76341    0.058
 6475.00    1.62109   1.76463    0.058
 6476.00    1.61558   1.76493    0.057
 6477.00    1.60704   1.76302    0.057
 6478.00    1.59745   1.75805    0.057
 6479.00    1.58339   1.75026    0.057
 6480.00    1.56970   1.74121    0.056
 6481.00    1.55732   1.73340    0.056
 6482.00    1.55060   1.72914    0.055
 6483.00    1.56049   1.72952    0.055
 6484.00    1.57086   1.73374    0.055
 6485.00    1.58244   1.73944    0.054
 6486.00    1.58663   1.74341    0.054
 6487.00    1.57492   1.74253    0.055
 6488.00    1.55881   1.73446    0.054
 6489.00    1.53451   1.71800    0.054
 6490.00    1.51398   1.69332    0.054
 6491.00    1.49964   1.66222    0.055
 6492.00    1.48658   1.62831    0.055
 6493.00    1.47538   1.59662    0.056
 6494.00    1.46730   1.57251    0.056
 6495.00    1.46316   1.56015    0.056
 6496.00    1.45925   1.56124    0.056
 6497.00    1.45559   1.57479    0.056
 6498.00    1.46247   1.59765    0.055
 6499.00    1.47966   1.62567    0.056
 6500.00    1.50042   1.65492    0.056
 6501.00    1.52426   1.68228    0.055
 6502.00    1.54137   1.70568    0.055
 6503.00    1.55337   1.72413    0.056
 6504.00    1.56220   1.73741    0.056
 6505.00    1.56891   1.74601    0.055
 6506.00    1.57406   1.75095    0.055
 6507.00    1.57829   1.75349    0.055
 6508.00    1.58501   1.75475    0.055
 6509.00    1.59300   1.75528    0.055
 6510.00    1.59371   1.75499    0.054
 6511.00    1.59121   1.75329    0.054
 6512.00    1.57871   1.74954    0.055
 6513.00    1.56242   1.74366    0.055
 6514.00    1.55797   1.73643    0.056
 6515.00    1.55734   1.72938    0.056
 6516.00    1.56381   1.72436    0.056
 6517.00    1.57219   1.72288    0.056
 6518.00    1.57646   1.72549    0.056
 6519.00    1.57982   1.73156    0.057
 6520.00    1.58484   1.73942    0.057
 6521.00    1.59015   1.74701    0.057
 6522.00    1.58688   1.75263    0.057
 6523.00    1.58244   1.75539    0.057
 6524.00    1.57446   1.75542    0.056
 6525.00    1.56613   1.75366    0.056
 6526.00    1.57308   1.75131    0.056
 6527.00    1.58094   1.74926    0.056
 6528.00    1.58922   1.74785    0.000
 6529.00    1.59752   1.74699    0.000
 6530.00    1.60651   1.74655    0.000
 6531.00    1.61533   1.74666    0.000
 6532.00    1.61975   1.74775    0.000
 6533.00    1.62316   1.75022    0.000
 6534.00    1.61306   1.75411    0.000
 6535.00    1.60436   1.75894    0.000
 6536.00    1.60812   1.76385    0.000
 6537.00    1.61220   1.76783    0.000
 6538.00    1.61844   1.76984    0.000
 6539.00    1.62460   1.76893    0.000
 6540.00    1.63037   1.76442    0.000
 6541.00    1.63325   1.75628    0.000
 6542.00    1.62421   1.74529    0.000
 6543.00    1.61476   1.73295    0.000
 6544.00    1.60393   1.72125    0.000
 6545.00    1.59730   1.71206    0.000
 6546.00    1.60278   1.70632    0.000
 6547.00    1.60927   1.70368    0.000
 6548.00    1.61822   1.70258    0.000
 6549.00    1.62169   1.70100    0.000
 6550.00    1.61350   1.69720    0.000
 6551.00    1.60136   1.69044    0.000
 6552.00    1.58192   1.68101    0.000
 6553.00    1.55903   1.66980    0.000
 6554.00    1.53061   1.65750    0.000
 6555.00    1.50648   1.64342    0.000
 6556.00    1.48842   1.62486    0.000
 6557.00    1.47694   1.59838    0.000
 6558.00    1.47366   1.56225    0.000
 6559.00    1.47906   1.51827    0.000
 6560.00    1.49397   1.47284    0.000
 6561.00    1.50043   1.43624    0.000
 6562.00    1.49874   1.41855    0.000
 6563.00    1.49452   1.42525    0.000
 6564.00    1.48815   1.45480    0.000
 6565.00    1.48922   1.49918    0.000
 6566.00    1.49586   1.54740    0.000
 6567.00    1.50208   1.58968    0.000
 6568.00    1.50803   1.62036    0.000
 6569.00    1.50534   1.63861    0.000
 6570.00    1.49766   1.64716    0.000
 6571.00    1.49785   1.65034    0.000
 6572.00    1.50199   1.65234    0.000
 6573.00    1.51328   1.65632    0.000
 6574.00    1.52766   1.66374    0.000
 6575.00    1.54248   1.67423    0.000
 6576.00    1.55746   1.68610    0.000
 6577.00    1.57823   1.69725    0.000
 6578.00    1.60084   1.70602    0.000
 6579.00    1.62797   1.71187    0.000
 6580.00    1.65631   1.71536    0.000
 6581.00    1.68395   1.71761    0.000
 6582.00    1.71143   1.71972    0.000
 6583.00    1.71897   1.72228    0.000
 6584.00    1.72310   1.72531    0.000
 6585.00    1.70939   1.72833    0.000
 6586.00    1.69337   1.73022    0.000
 6587.00    1.66758   1.72937    0.000
 6588.00    1.64091   1.72445    0.000
 6589.00    1.61504   1.71511    0.000
 6590.00    1.58921   1.70246    0.000
 6591.00    1.56418   1.68903    0.000
 6592.00    1.53934   1.67806    0.000
 6593.00    1.53123   1.67222    0.000
 6594.00    1.52361   1.67264    0.000
 6595.00    1.52710   1.67868    0.000
 6596.00    1.53126   1.68845    0.000
 6597.00    1.54384   1.69974    0.000
 6598.00    1.55544   1.71066    0.000
 6599.00    1.55860   1.71980    0.000
 6600.00    1.55971   1.72614    0.000
 6601.00    1.54777   1.72895    0.000
 6602.00    1.53850   1.72782    0.000
 6603.00    1.54254   1.72294    0.000
 6604.00    1.54679   1.71533    0.000
 6605.00    1.55187   1.70688    0.000
 6606.00    1.55430   1.69975    0.000
 6607.00    1.54784   1.69565    0.000
 6608.00    1.54222   1.69555    0.000
 6609.00    1.53897   1.69949    0.057
 6610.00    1.53932   1.70666    0.056
 6611.00    1.54836   1.71555    0.057
 6612.00    1.55576   1.72463    0.057
 6613.00    1.55972   1.73287    0.058
 6614.00    1.56000   1.73980    0.058
 6615.00    1.55362   1.74537    0.057
 6616.00    1.55319   1.74966    0.057
 6617.00    1.56220   1.75259    0.056
 6618.00    1.56807   1.75379    0.056
 6619.00    1.56957   1.75269    0.056
 6620.00    1.57055   1.74904    0.056
 6621.00    1.57090   1.74317    0.056
 6622.00    1.56381   1.73589    0.056
 6623.00    1.54868   1.72847    0.055
 6624.00    1.53436   1.72223    0.055
 6625.00    1.52081   1.71789    0.056
 6626.00    1.51291   1.71523    0.056
 6627.00    1.50976   1.71322    0.056
 6628.00    1.50980   1.71044    0.056
 6629.00    1.51220   1.70602    0.056
 6630.00    1.50683   1.70021    0.056
 6631.00    1.49640   1.69418    0.057
 6632.00    1.49064   1.68963    0.057
 6633.00    1.48753   1.68803    0.056
 6634.00    1.49652   1.68995    0.056
 6635.00    1.51150   1.69485    0.057
 6636.00    1.52184   1.70137    0.057
 6637.00    1.53019   1.70756    0.056
 6638.00    1.52756   1.71159    0.056
 6639.00    1.52090   1.71275    0.056
 6640.00    1.52271   1.71143    0.057
 6641.00    1.52713   1.70859    0.057
 6642.00    1.52482   1.70549    0.056
 6643.00    1.52076   1.70348    0.055
 6644.00    1.51324   1.70338    0.055
 6645.00    1.50500   1.70517    0.056
 6646.00    1.50852   1.70815    0.056
 6647.00    1.51400   1.71139    0.055
 6648.00    1.52079   1.71401    0.056
 6649.00    1.52775   1.71554    0.056
 6650.00    1.52620   1.71602    0.057
 6651.00    1.52391   1.71575    0.057
 6652.00    1.51066   1.71514    0.056
 6653.00    1.49685   1.71454    0.056
 6654.00    1.49149   1.71400    0.056
 6655.00    1.48645   1.71321    0.056
 6656.00    1.49386   1.71165    0.057
 6657.00    1.50047   1.70866    0.057
 6658.00    1.49037   1.70361    0.057
 6659.00    1.47976   1.69664    0.056
 6660.00    1.46306   1.68858    0.056
 6661.00    1.44791   1.68054    0.055
 6662.00    1.44554   1.67394    0.055
 6663.00    1.44399   1.67008    0.055
 6664.00    1.44751   1.66977    0.056
 6665.00    1.45199   1.67309    0.056
 6666.00    1.46113   1.67941    0.055
 6667.00    1.47113   1.68766    0.055
 6668.00    1.48450   1.69656    0.055
 6669.00    1.49575   1.70487    0.056
 6670.00    1.50003   1.71148    0.057
 6671.00    1.50278   1.71520    0.057
 6672.00    1.50127   1.71480    0.057
 6673.00    1.49611   1.70968    0.056
 6674.00    1.48227   1.70061    0.056
 6675.00    1.46992   1.68933    0.057
 6676.00    1.46063   1.67812    0.057
 6677.00    1.45676   1.66946    0.057
 6678.00    1.46256   1.66534    0.057
 6679.00    1.46977   1.66638    0.057
 6680.00    1.47917   1.67182    0.057
 6681.00    1.48693   1.67991    0.057
 6682.00    1.49246   1.68857    0.057
 6683.00    1.49578   1.69614    0.056
 6684.00    1.49645   1.70181    0.056
 6685.00    1.49848   1.70553    0.056
 6686.00    1.50195   1.70765    0.056
 6687.00    1.49785   1.70871    0.056
 6688.00    1.48664   1.70915    0.055
 6689.00    1.47956   1.70903    0.055
 6690.00    1.47591   1.70799    0.056
 6691.00    1.47498   1.70552    0.056
 6692.00    1.47602   1.70144    0.056
 6693.00    1.47413   1.69616    0.056
 6694.00    1.47037   1.69058    0.057
 6695.00    1.46656   1.68599    0.057
 6696.00    1.46272   1.68350    0.000
 6697.00    1.46165   1.68345    0.000
 6698.00    1.46192   1.68535    0.000
 6699.00    1.46542   1.68800    0.000
 6700.00    1.47029   1.69022    0.000
 6701.00    1.47166   1.69135    0.000
 6702.00    1.47177   1.69137    0.000
 6703.00    1.46656   1.69077    0.000
 6704.00    1.45973   1.69023    0.000
 6705.00    1.45696   1.69013    0.000
 6706.00    1.45523   1.69035    0.000
 6707.00    1.46002   1.69041    0.000
 6708.00    1.46616   1.68955    0.000
 6709.00    1.46799   1.68699    0.000
 6710.00    1.46913   1.68227    0.000
 6711.00    1.48073   1.67518    0.000
 6712.00    1.49359   1.66587    0.000
 6713.00    1.51231   1.65518    0.000
 6714.00    1.53151   1.64483    0.000
 6715.00    1.53541   1.63677    0.000
 6716.00    1.53859   1.63241    0.000
 6717.00    1.53173   1.63246    0.000
 6718.00    1.52449   1.63679    0.000
 6719.00    1.50354   1.64437    0.000
 6720.00    1.48316   1.65334    0.000
 6721.00    1.47409   1.66178    0.000
 6722.00    1.46623   1.66848    0.000
 6723.00    1.47231   1.67319    0.000
 6724.00    1.47869   1.67629    0.000
 6725.00    1.48761   1.67851    0.000
 6726.00    1.49611   1.68061    0.000
 6727.00    1.50213   1.68295    0.000
 6728.00    1.50865   1.68541    0.000
 6729.00    1.51754   1.68760    0.000
 6730.00    1.52427   1.68917    0.000
 6731.00    1.52264   1.68994    0.000
 6732.00    1.51921   1.68979    0.000
 6733.00    1.50998   1.68853    0.000
 6734.00    1.50202   1.68612    0.000
 6735.00    1.49755   1.68277    0.000
 6736.00    1.48755   1.67893    0.000
 6737.00    1.46467   1.67494    0.000
 6738.00    1.44433   1.67104    0.000
 6739.00    1.42914   1.66766    0.000
 6740.00    1.42279   1.66525    0.000
 6741.00    1.43198   1.66383    0.000
 6742.00    1.44161   1.66301    0.000
 6743.00    1.45193   1.66237    0.000
 6744.00    1.45503   1.66138    0.000
 6745.00    1.44835   1.65962    0.000
 6746.00    1.44167   1.65709    0.000
 6747.00    1.43500   1.65424    0.000
 6748.00    1.42693   1.65156    0.000
 6749.00    1.41741   1.64970    0.000
 6750.00    1.40970   1.64951    0.000
 6751.00    1.40366   1.65140    0.000
 6752.00    1.40324   1.65554    0.000
 6753.00    1.40739   1.66179    0.059
 6754.00    1.40069   1.66963    0.060
 6755.00    1.38619   1.67827    0.061
 6756.00    1.37766   1.68686    0.062
 6757.00    1.37290   1.69447    0.063
 6758.00    1.39310   1.70038    0.063
 6759.00    1.42706   1.70428    0.064
 6760.00    1.49259   1.70595    0.065
 6761.00    1.57324   1.70522    0.067
 6762.00    1.62646   1.70207    0.069
 6763.00    1.66833   1.69673    0.070
 6764.00    1.67490   1.69007    0.069
 6765.00    1.66898   1.68320    0.068
 6766.00    1.66664   1.67687    0.067
 6767.00    1.66538   1.67190    0.066
 6768.00    1.66595   1.66928    0.066
 6769.00    1.66699   1.66960    0.065
 6770.00    1.64574   1.67293    0.064
 6771.00    1.62002   1.67885    0.063
 6772.00    1.58939   1.68659    0.062
 6773.00    1.55799   1.69509    0.061
 6774.00    1.54024   1.70332    0.061
 6775.00    1.52408   1.71031    0.061
 6776.00    1.49930   1.71508    0.061
 6777.00    1.47385   1.71680    0.060
 6778.00    1.49334   1.71479    0.061
 6779.00    1.51478   1.70887    0.062
 6780.00    1.50583   1.69978    0.063
 6781.00    1.49644   1.68894    0.065
 6782.00    1.48139   1.67817    0.064
 6783.00    1.46805   1.66939    0.063
 6784.00    1.48557   1.66406    0.063
 6785.00    1.50204   1.66246    0.063
 6786.00    1.50695   1.66414    0.063
 6787.00    1.51215   1.66805    0.063
 6788.00    1.51961   1.67256    0.063
 6789.00    1.52669   1.67611    0.063
 6790.00    1.53150   1.67799    0.063
 6791.00    1.52942   1.67829    0.063
 6792.00    1.49552   1.67756    0.062
 6793.00    1.47094   1.67676    0.061
 6794.00    1.48166   1.67662    0.061
 6795.00    1.49095   1.67767    0.060
 6796.00    1.49577   1.68007    0.060
 6797.00    1.50354   1.68349    0.060
 6798.00    1.51923   1.68731    0.060
 6799.00    1.52732   1.69077    0.061
 6800.00    1.51793   1.69325    0.062
 6801.00    1.51401   1.69461    0.062
 6802.00    1.52097   1.69476    0.062
 6803.00    1.51898   1.69387    0.063
 6804.00    1.50146   1.69255    0.062
 6805.00    1.48936   1.69108    0.062
 6806.00    1.48547   1.68960    0.062
 6807.00    1.47985   1.68853    0.062
 6808.00    1.47191   1.68795    0.061
 6809.00    1.47029   1.68765    0.061
 6810.00    1.47607   1.68726    0.061
 6811.00    1.47922   1.68667    0.061
 6812.00    1.47964   1.68639    0.062
 6813.00    1.48942   1.68678    0.063
 6814.00    1.50773   1.68766    0.063
 6815.00    1.51169   1.68882    0.063
 6816.00    1.50410   1.69020    0.063
 6817.00    1.49768   1.69190    0.062
 6818.00    1.49208   1.69408    0.061
 6819.00    1.49450   1.69673    0.060
 6820.00    1.50188   1.69971    0.061
 6821.00    1.51483   1.70279    0.061
 6822.00    1.53078   1.70540    0.062
 6823.00    1.53141   1.70668    0.061
 6824.00    1.52481   1.70614    0.061
 6825.00    1.51386   1.70414    0.061
 6826.00    1.50114   1.70159    0.062
 6827.00    1.49947   1.69927    0.062
 6828.00    1.50164   1.69778    0.063
 6829.00    1.50879   1.69759    0.063
 6830.00    1.51740   1.69888    0.063
 6831.00    1.52691   1.70112    0.063
 6832.00    1.53664   1.70317    0.062
 6833.00    1.52821   1.70393    0.062
 6834.00    1.51623   1.70244    0.061
 6835.00    1.50751   1.69800    0.061
 6836.00    1.49928   1.69053    0.061
 6837.00    1.50684   1.68069    0.062
 6838.00    1.51618   1.66997    0.063
 6839.00    1.50489   1.66046    0.064
 6840.00    1.49207   1.65413    0.064
 6841.00    1.48071   1.65227    0.063
 6842.00    1.46940   1.65500    0.063
 6843.00    1.45791   1.66149    0.062
 6844.00    1.44690   1.67026    0.061
 6845.00    1.45537   1.67941    0.061
 6846.00    1.46351   1.68725    0.061
 6847.00    1.46609   1.69277    0.061
 6848.00    1.46960   1.69559    0.062
 6849.00    1.48270   1.69568    0.062
 6850.00    1.49383   1.69296    0.062
 6851.00    1.49028   1.68767    0.062
 6852.00    1.48383   1.68093    0.062
 6853.00    1.46091   1.67390    0.061
 6854.00    1.44166   1.66737    0.060
 6855.00    1.43896   1.66220    0.060
 6856.00    1.43444   1.65861    0.060
 6857.00    1.42319   1.65633    0.060
 6858.00    1.41306   1.65552    0.060
 6859.00    1.40638   1.65672    0.060
 6860.00    1.40636   1.65998    0.060
 6861.00    1.42387   1.66445    0.061
 6862.00    1.43678   1.66899    0.061
 6863.00    1.43927   1.67259    0.061
 6864.00    1.44278   1.67447    0.061
 6865.00    1.44825   1.67464    0.062
 6866.00    1.45533   1.67366    0.063
 6867.00    1.46516   1.67183    0.063
 6868.00    1.46677   1.66951    0.064
 6869.00    1.45608   1.66764    0.063
 6870.00    1.44781   1.66712    0.063
 6871.00    1.44272   1.66806    0.062
 6872.00    1.44238   1.67034    0.061
 6873.00    1.44756   1.67388    0.061
 6874.00    1.44725   1.67836    0.060
 6875.00    1.44133   1.68305    0.060
 6876.00    1.44079   1.68709    0.060
 6877.00    1.44509   1.68962    0.060
 6878.00    1.44418   1.68993    0.060
 6879.00    1.43913   1.68818    0.059
 6880.00    1.43076   1.68550    0.060
 6881.00    1.42008   1.68304    0.060
 6882.00    1.42409   1.68159    0.061
 6883.00    1.43709   1.68208    0.060
 6884.00    1.45224   1.68514    0.061
 6885.00    1.46853   1.69045    0.061
 6886.00    1.47863   1.69720    0.062
 6887.00    1.48585   1.70449    0.063
 6888.00    1.48207   1.71124    0.063
 6889.00    1.47388   1.71645    0.062
 6890.00    1.47712   1.71975    0.062
 6891.00    1.48425   1.72118    0.063
 6892.00    1.47710   1.72090    0.063
 6893.00    1.46586   1.71946    0.062
 6894.00    1.45544   1.71769    0.062
 6895.00    1.44521   1.71609    0.061
 6896.00    1.44411   1.71472    0.061
 6897.00    1.44474   1.71396    0.060
 6898.00    1.44419   1.71432    0.060
 6899.00    1.44345   1.71575    0.060
 6900.00    1.44340   1.71781    0.061
 6901.00    1.44342   1.72024    0.062
 6902.00    1.45058   1.72304    0.062
 6903.00    1.45825   1.72622    0.062
 6904.00    1.45856   1.72950    0.062
 6905.00    1.45860   1.73247    0.062
 6906.00    1.45674   1.73461    0.063
 6907.00    1.45467   1.73528    0.063
 6908.00    1.44541   1.73405    0.063
 6909.00    1.43624   1.73074    0.062
 6910.00    1.42851   1.72536    0.061
 6911.00    1.42147   1.71868    0.061
 6912.00    1.42130   1.71201    0.061
 6913.00    1.42273   1.70638    0.062
 6914.00    1.43571   1.70275    0.062
 6915.00    1.44615   1.70173    0.061
 6916.00    1.44259   1.70334    0.060
 6917.00    1.43672   1.70693    0.060
 6918.00    1.42068   1.71133    0.060
 6919.00    1.40790   1.71498    0.061
 6920.00    1.40695   1.71635    0.061
 6921.00    1.40499   1.71485    0.061
 6922.00    1.39996   1.71140    0.061
 6923.00    1.40028   1.70752    0.061
 6924.00    1.41445   1.70458    0.062
 6925.00    1.42276   1.70335    0.063
 6926.00    1.41802   1.70400    0.062
 6927.00    1.41331   1.70617    0.063
 6928.00    1.40863   1.70888    0.063
 6929.00    1.41263   1.71109    0.063
 6930.00    1.43122   1.71239    0.064
 6931.00    1.43817   1.71315    0.064
 6932.00    1.42800   1.71375    0.063
 6933.00    1.42090   1.71450    0.063
 6934.00    1.41778   1.71586    0.062
 6935.00    1.41776   1.71805    0.062
 6936.00    1.42128   1.72090    0.062
 6937.00    1.43021   1.72381    0.062
 6938.00    1.44458   1.72591    0.062
 6939.00    1.45358   1.72617    0.062
 6940.00    1.45781   1.72396    0.062
 6941.00    1.45330   1.71951    0.062
 6942.00    1.44194   1.71415    0.063
 6943.00    1.42866   1.70966    0.063
 6944.00    1.41405   1.70699    0.063
 6945.00    1.40556   1.70634    0.063
 6946.00    1.40074   1.70740    0.063
 6947.00    1.39974   1.70916    0.063
 6948.00    1.40074   1.71053    0.063
 6949.00    1.40396   1.71106    0.063
 6950.00    1.40820   1.71065    0.064
 6951.00    1.40183   1.70962    0.064
 6952.00    1.39130   1.70901    0.063
 6953.00    1.40104   1.70987    0.063
 6954.00    1.41756   1.71244    0.063
 6955.00    1.42916   1.71645    0.063
 6956.00    1.43938   1.72150    0.064
 6957.00    1.44036   1.72687    0.063
 6958.00    1.43920   1.73197    0.063
 6959.00    1.43764   1.73645    0.063
 6960.00    1.43601   1.74011    0.063
 6961.00    1.42897   1.74273    0.063
 6962.00    1.42115   1.74428    0.063
 6963.00    1.42079   1.74532    0.063
 6964.00    1.42120   1.74654    0.062
 6965.00    1.42693   1.74799    0.063
 6966.00    1.43301   1.74913    0.064
 6967.00    1.44440   1.74956    0.065
 6968.00    1.45596   1.74923    0.065
 6969.00    1.43799   1.74830    0.065
 6970.00    1.42061   1.74635    0.065
 6971.00    1.42141   1.74228    0.064
 6972.00    1.42243   1.73530    0.064
 6973.00    1.42674   1.72520    0.064
 6974.00    1.42797   1.71223    0.064
 6975.00    1.39952   1.69779    0.064
 6976.00    1.37289   1.68519    0.064
 6977.00    1.35896   1.67764    0.063
 6978.00    1.34991   1.67643    0.062
 6979.00    1.36704   1.68171    0.062
 6980.00    1.38126   1.69255    0.062
 6981.00    1.38293   1.70659    0.063
 6982.00    1.38612   1.72113    0.063
 6983.00    1.39472   1.73386    0.063
 6984.00    1.40421   1.74294    0.064
 6985.00    1.41640   1.74733    0.064
 6986.00    1.42356   1.74788    0.065
 6987.00    1.41795   1.74667    0.064
 6988.00    1.41535   1.74536    0.064
 6989.00    1.41931   1.74473    0.065
 6990.00    1.41916   1.74479    0.066
 6991.00    1.41123   1.74524    0.066
 6992.00    1.40685   1.74588    0.066
 6993.00    1.40835   1.74630    0.065
 6994.00    1.40940   1.74571    0.065
 6995.00    1.40978   1.74322    0.064
 6996.00    1.41238   1.73859    0.064
 6997.00    1.41781   1.73300    0.064
 6998.00    1.41859   1.72803    0.064
 6999.00    1.41415   1.72421    0.063
 7000.00    1.40591   1.72099    0.063
 7001.00    1.39389   1.71809    0.064
 7002.00    1.39025   1.71599    0.064
 7003.00    1.39395   1.71518    0.065
 7004.00    1.39063   1.71585    0.065
 7005.00    1.38189   1.71787    0.066
 7006.00    1.38382   1.72070    0.067
 7007.00    1.39296   1.72355    0.068
 7008.00    1.39507   1.72595    0.069
 7009.00    1.39299   1.72774    0.069
 7010.00    1.39640   1.72814    0.069
 7011.00    1.40266   1.72579    0.069
 7012.00    1.37976   1.71988    0.069
 7013.00    1.34377   1.71179    0.068
 7014.00    1.34451   1.70506    0.067
 7015.00    1.35941   1.70229    0.067
 7016.00    1.37477   1.70363    0.067
 7017.00    1.39027   1.70808    0.066
 7018.00    1.38205   1.71414    0.066
 7019.00    1.36731   1.71965    0.066
 7020.00    1.35573   1.72295    0.066
 7021.00    1.34486   1.72406    0.066
 7022.00    1.34775   1.72365    0.066
 7023.00    1.35313   1.72252    0.067
 7024.00    1.36024   1.72186    0.068
 7025.00    1.36759   1.72290    0.068
 7026.00    1.37030   1.72607    0.068
 7027.00    1.37254   1.73087    0.068
 7028.00    1.37242   1.73629    0.069
 7029.00    1.37214   1.74099    0.069
 7030.00    1.39295   1.74410    0.069
 7031.00    1.41424   1.74548    0.070
 7032.00    1.40778   1.74573    0.070
 7033.00    1.40134   1.74525    0.071
 7034.00    1.39532   1.74347    0.071
 7035.00    1.39003   1.74088    0.071
 7036.00    1.39495   1.74022    0.070
 7037.00    1.40006   1.74361    0.069
 7038.00    1.40696   1.75068    0.069
 7039.00    1.41151   1.76019    0.069
 7040.00    1.40013   1.77065    0.068
 7041.00    1.39402   1.78030    0.068
 7042.00    1.41545   1.78842    0.069
 7043.00    1.43614   1.79528    0.069
 7044.00    1.45373   1.80045    0.070
 7045.00    1.46255   1.80328    0.070
 7046.00    1.44082   1.80365    0.070
 7047.00    1.42341   1.80132    0.070
 7048.00    1.41866   1.79546    0.072
 7049.00    1.41186   1.78512    0.072
 7050.00    1.39993   1.77048   -2.000
 7051.00    1.39693   1.75305   -2.000
 7052.00    1.41315   1.73506   -2.000
 7053.00    1.42290   1.71898   -2.000
 7054.00    1.42058   1.70618   -2.000
 7055.00    1.42687   1.69646   -2.000
 7056.00    1.44721   1.68885   -2.000
 7057.00    1.46430   1.68297   -2.000
 7058.00    1.47675   1.67889   -2.000
 7059.00    1.48555   1.67611   -2.000
 7060.00    1.48977   1.67402   -2.000
 7061.00    1.48834   1.67246   -2.000
 7062.00    1.48064   1.67091   -2.000
 7063.00    1.49866   1.66870   -2.000
 7064.00    1.54184   1.66596   -2.000
 7065.00    1.53494   1.66311   -2.000
 7066.00    1.48485   1.66140   -2.000
 7067.00    1.44706   1.66227   -2.000
 7068.00    1.41859   1.66590   -2.000
 7069.00    1.43250   1.67171   -2.000
 7070.00    1.47470   1.67932   -2.000
 7071.00    1.49790   1.68796   -2.000
 7072.00    1.50999   1.69631   -2.000
 7073.00    1.53818   1.70338   -2.000
 7074.00    1.57459   1.70867   -2.000
 7075.00    1.58057   1.71209   -2.000
 7076.00    1.57312   1.71385   -2.000
 7077.00    1.54381   1.71424   -2.000
 7078.00    1.50620   1.71275   -2.000
 7079.00    1.51335   1.70809   -2.000
 7080.00    1.53491   1.69931   -2.000
 7081.00    1.52495   1.68650   -2.000
 7082.00    1.50651   1.67142   -2.000
 7083.00    1.49503   1.65613   -2.000
 7084.00    1.48509   1.64113   -2.000
 7085.00    1.44332   1.62699   -2.000
 7086.00    1.39595   1.61490   -2.000
 7087.00    1.40336   1.60547   -2.000
 7088.00    1.41811   1.59912   -2.000
 7089.00    1.40917   1.59556   -2.000
 7090.00    1.39797   1.59355   -2.000
 7091.00    1.39481   1.59276   -2.000
 7092.00    1.39212   1.59330   -2.000
 7093.00    1.38865   1.59523   -2.000
 7094.00    1.38518   1.59851   -2.000
 7095.00    1.38329   1.60311   -2.000
 7096.00    1.38095   1.60899   -2.000
 7097.00    1.36737   1.61510   -2.000
 7098.00    1.35425   1.62075   -2.000
 7099.00    1.34719   1.62536   -2.000
 7100.00    1.33566   1.62910   -2.000
 7101.00    1.28444   1.63250   -2.000
 7102.00    1.24340   1.63545   -2.000
 7103.00    1.26878   1.63712   -2.000
 7104.00    1.28914   1.63737   -2.000
 7105.00    1.28390   1.63703   -2.000
 7106.00    1.27754   1.63628   -2.000
 7107.00    1.26654   1.63440   -2.000
 7108.00    1.26177   1.63140   -2.000
 7109.00    1.27827   1.62861   -2.000
 7110.00    1.28949   1.62735   -2.000
 7111.00    1.28553   1.62797   -2.000
 7112.00    1.28676   1.63022   -2.000
 7113.00    1.30068   1.63379   -2.000
 7114.00    1.30493   1.63798   -2.000
 7115.00    1.28869   1.64210   -2.000
 7116.00    1.28688   1.64542   -2.000
 7117.00    1.31159   1.64707   -2.000
 7118.00    1.33478   1.64663   -2.000
 7119.00    1.35552   1.64431   -2.000
 7120.00    1.37771   1.64136   -2.000
 7121.00    1.40196   1.63799   -2.000
 7122.00    1.41460   1.63301   -2.000
 7123.00    1.41283   1.62646   -2.000
 7124.00    1.39371   1.61944   -2.000
 7125.00    1.35560   1.61256   -2.000
 7126.00    1.34086   1.60547   -2.000
 7127.00    1.34865   1.59781   -2.000
 7128.00    1.34526   1.59076   -2.000
 7129.00    1.33236   1.58657   -2.000
 7130.00    1.34173   1.58621   -2.000
 7131.00    1.36777   1.58935   -2.000
 7132.00    1.36920   1.59481   -2.000
 7133.00    1.35444   1.60157   -2.000
 7134.00    1.31150   1.60922   -2.000
 7135.00    1.25233   1.61642   -2.000
 7136.00    1.25907   1.62176   -2.000
 7137.00    1.29888   1.62551   -2.000
 7138.00    1.32874   1.62838   -2.000
 7139.00    1.35426   1.63017   -2.000
 7140.00    1.36775   1.63096   -2.000
 7141.00    1.37675   1.63091   -2.000
 7142.00    1.33880   1.62983   -2.000
 7143.00    1.28602   1.62775   -2.000
 7144.00    1.28538   1.62399   -2.000
 7145.00    1.29850   1.61846   -2.000
 7146.00    1.29369   1.61382   -2.000
 7147.00    1.28501   1.61200   -2.000
 7148.00    1.28251   1.61304   -2.000
 7149.00    1.28107   1.61726   -2.000
 7150.00    1.28517   1.62434   -2.000
 7151.00    1.28999   1.63266   -2.000
 7152.00    1.28472   1.64101   -2.000
 7153.00    1.27853   1.64909   -2.000
 7154.00    1.28843   1.65614   -2.000
 7155.00    1.29920   1.66063   -2.000
 7156.00    1.29315   1.66193   -2.000
 7157.00    1.28664   1.66053   -2.000
 7158.00    1.26992   1.65749   -2.000
 7159.00    1.25725   1.65342   -2.000
 7160.00    1.33635   1.64727   -2.000
 7161.00    1.41168   1.63840   -2.000
 7162.00    1.43945   1.62900   -2.000
 7163.00    1.45951   1.62279   -2.000
 7164.00    1.41374   1.62115   -2.000
 7165.00    1.37098   1.62324   -2.000
 7166.00    1.34726   1.62779   -2.000
 7167.00    1.33569   1.63428   -2.000
 7168.00    1.38442   1.64272   -2.000
 7169.00    1.41990   1.65210   -2.000
 7170.00    1.40201   1.66016   -2.000
 7171.00    1.38041   1.66508   -2.000
 7172.00    1.34641   1.66647   -2.000
 7173.00    1.31989   1.66504   -2.000
 7174.00    1.31445   1.66237   -2.000
 7175.00    1.31902   1.65923   -2.000
 7176.00    1.34775   1.65474   -2.000
 7177.00    1.36669   1.64841   -2.000
 7178.00    1.36526   1.64161   -2.000
 7179.00    1.36510   1.63689   -2.000
 7180.00    1.36722   1.63556   -2.000
 7181.00    1.35172   1.63609   -2.000
 7182.00    1.30831   1.63616   -2.000
 7183.00    1.28117   1.63457   -2.000
 7184.00    1.27663   1.63101   -2.000
 7185.00    1.26392   1.62653   -2.000
 7186.00    1.24121   1.62223   -2.000
 7187.00    1.24622   1.61860   -2.000
 7188.00    1.28110   1.61647   -2.000
 7189.00    1.30348   1.61605   -2.000
 7190.00    1.31398   1.61742   -2.000
 7191.00    1.31233   1.62117   -2.000
 7192.00    1.30048   1.62677   -2.000
 7193.00    1.28652   1.63206   -2.000
 7194.00    1.27099   1.63555   -2.000
 7195.00    1.25982   1.63799   -2.000
 7196.00    1.25148   1.64048   -2.000
 7197.00    1.24015   1.64295   -2.000
 7198.00    1.22713   1.64446   -2.000
 7199.00    1.23657   1.64470   -2.000
 7200.00    1.25709   1.64499   -2.000
 7201.00    1.29134   1.64598   -2.000
 7202.00    1.33145   1.64608   -2.000
 7203.00    1.31221   1.64310   -2.000
 7204.00    1.27126   1.63684   -2.000
 7205.00    1.20867   1.63037   -2.000
 7206.00    1.13938   1.62641   -2.000
 7207.00    1.13761   1.62560   -2.000
 7208.00    1.15327   1.62759   -2.000
 7209.00    1.16806   1.63130   -2.000
 7210.00    1.18266   1.63590   -2.000
 7211.00    1.20124   1.64140   -2.000
 7212.00    1.22047   1.64706   -2.000
 7213.00    1.20947   1.65194   -2.000
 7214.00    1.19470   1.65610   -2.000
 7215.00    1.20985   1.65973   -2.000
 7216.00    1.22759   1.66265   -2.000
 7217.00    1.21857   1.66504   -2.000
 7218.00    1.20819   1.66707   -2.000
