###################################################################
## OUTPUT of StarlightChains_v04.for    [Cid@UFSC - 01/Apr/2007] ##
###################################################################

## Some input info
KUG0210-078._28_32.txt                   [arq_obs]
Base.CB07.vall.4m                        [arq_base]
Masks.EmLines.NEW.gm                     [arq_masks]
StCv04.C11.config                        [arq_config]
   66                                    [N_base]
    0                                    [N_YAV_components = # of components with extra extinction!]
    0                                    [i_FitPowerLaw (1/0 = Yes/No)]
-9.99                                    [alpha_PowerLaw]
CCM                                      [red_law_option]
 1.458241                                [q_norm = A(l_norm)/A(V)]

## (Re)Sampling Parameters
 3741.00                                 [l_ini (A)]
 7218.00                                 [l_fin (A)]
    1.00                                 [dl    (A)]     (OBS: dl_cushion =    50.00 A)

## Normalization info
 4020.00                                 [l_norm (A) - for base]
 4010.00                                 [llow_norm (A) - window for f_obs]
 4060.00                                 [lupp_norm (A) - window for f_obs]
6.340218E-17                             [fobs_norm (in input units)]

## S/N
 3691.00                                 [llow_SN (A) - window for S/N]
 7268.00                                 [lupp_SN (A) - window for S/N]
   9.758                                 [S/N in S/N window]
  12.334                                 [S/N in norm. window]
   0.065                                 [S/N_err in S/N window]
   0.083                                 [S/N_err in norm. window]
  1.0000                                 [fscale_chi2]

## etc...
    -2007380                             [idum_orig]
  2432                                   [NOl_eff]
  2414                                   [Nl_eff]
    18    NSIGMA                         [Ntot_cliped & clip_method]
  6074460                                [Nglobal_steps]
   7                                     [N_chains]
  33                                     [NEX0s_base = N_base in EX0s-fits]
 0   0   1       18   2.0   1.116E+04    [Clip-Bug, RC-Crash & Burn-In warning-flags, n_censored_weights, wei_nsig_threshold & wei_limit]
    49     49.063     48.630      0.433  [idt_all, wdt_TotTime, wdt_UsrTime & wdt_SysTime (sec)]

## Synthesis Results - Best model ##

 4.98092E-05                             [chi2/Nl_eff]
     4.21406                             [adev (%)]

    98.64470                             [sum-of-x (%)]
 9.57180E-17                             [Flux_tot (units of input spectrum!)]
 1.92255E-12                             [Mini_tot (???)]
 9.90911E-13                             [Mcor_tot (???)]

 -27.35                                  [v0_min  (km/s)]
 364.24                                  [vd_min  (km/s)]
 0.3168                                  [AV_min  (mag)]
 0.0000                                  [YAV_min (mag)]

# j     x_j(%)      Mini_j(%)     Mcor_j(%)     age_j(yr)     Z_j      (L/M)_j    YAV?  Mstars   component_j        a/Fe...       SSP_chi2r SSP_adev(%)   SSP_AV   SSP_x(%)
  1      4.8473     2.2363E-02    4.3388E-02    1.000000E+06  0.00400  1.094E-02    0   1.0000   age020_m42            0.0000     8.9655E-05     9.0409   2.4606    89.5686
  2      0.0000     0.0000E+00    0.0000E+00    3.160000E+06  0.00400  4.007E-02    0   0.9999   age045_m42            0.0000     1.2172E-04     9.5379   1.6786    97.2070
  3      0.0000     0.0000E+00    0.0000E+00    5.010000E+06  0.00400  2.539E-02    0   0.9488   age055_m42            0.0000     1.0283E-04     9.1527   2.0281    94.0849
  4      0.0000     0.0000E+00    0.0000E+00    6.610000E+06  0.00400  2.620E-02    0   0.9220   age061_m42            0.0000     1.2649E-04     9.3597   1.6119    97.2433
  5      0.0000     0.0000E+00    0.0000E+00    1.000000E+07  0.00400  1.322E-02    0   0.8862   age070_m42            0.0000     1.0218E-04     7.4360   1.4027    97.4066
  6      0.0000     0.0000E+00    0.0000E+00    1.445000E+07  0.00400  7.883E-03    0   0.8571   age078_m42            0.0000     9.3243E-05     7.5496   1.7339    94.8259
  7      0.0000     0.0000E+00    0.0000E+00    2.512000E+07  0.00400  5.251E-03    0   0.8174   age090_m42            0.0000     1.0268E-04     7.1616   1.2822    97.7264
  8      0.0000     0.0000E+00    0.0000E+00    4.000000E+07  0.00400  3.649E-03    0   0.7851   age104_m42            0.0000     1.1123E-04     7.4055   1.0391    98.9861
  9      0.0000     0.0000E+00    0.0000E+00    5.500000E+07  0.00400  3.098E-03    0   0.7629   age110_m42            0.0000     1.3971E-04     8.5096   1.1492   100.1352
 10      0.0000     0.0000E+00    0.0000E+00    1.015200E+08  0.00400  2.228E-03    0   0.7207   age116_m42            0.0000     1.6756E-04     9.2620   1.1428   101.0201
 11      0.0000     0.0000E+00    0.0000E+00    2.861200E+08  0.00400  1.093E-03    0   0.6648   age125_m42            0.0000     1.7989E-04     8.7787   0.5857   103.5718
 12      0.0000     0.0000E+00    0.0000E+00    5.088000E+08  0.00400  6.597E-04    0   0.6365   age130_m42            0.0000     2.2179E-04     9.9380   0.5330   105.6416
 13      0.0000     0.0000E+00    0.0000E+00    1.434000E+09  0.00400  2.132E-04    0   0.5798   age139_m42            0.0000     2.1585E-04    10.1950  -0.4686   108.5437
 14      0.0000     0.0000E+00    0.0000E+00    4.250000E+09  0.00400  5.895E-05    0   0.5377   age158_m42            0.0000     1.7410E-04    11.0648  -0.9440   105.2050
 15      0.0000     0.0000E+00    0.0000E+00    7.500000E+09  0.00400  3.510E-05    0   0.5212   age171_m42            0.0000     1.9198E-04    10.5136  -1.0000   102.3977
 16      0.9393     2.3644E+00    2.3093E+00    1.300000E+10  0.00400  2.005E-05    0   0.5034   age193_m42            0.0000     2.2773E-04    10.6237  -1.0000    98.8520
 17      0.0000     0.0000E+00    0.0000E+00    1.800000E+10  0.00400  1.525E-05    0   0.4967   age213_m42            0.0000     2.2379E-04    10.5432  -1.0000    97.9326
 18     30.7032     1.2517E-01    2.4286E-01    1.000000E+06  0.00800  1.238E-02    0   1.0000   age020_m52            0.0000     9.0201E-05     9.0580   2.4560    89.7664
 19      1.4534     2.3862E-03    4.6140E-03    3.160000E+06  0.00800  3.074E-02    0   0.9966   age045_m52            0.0000     9.2174E-05     9.1199   2.3739    90.7231
 20      0.0000     0.0000E+00    0.0000E+00    5.010000E+06  0.00800  2.668E-02    0   0.9443   age055_m52            0.0000     9.7628E-05     8.9797   2.1204    93.0010
 21      0.0000     0.0000E+00    0.0000E+00    6.610000E+06  0.00800  2.136E-02    0   0.9177   age061_m52            0.0000     7.9305E-05     7.1862   0.9039    98.4828
 22      0.0000     0.0000E+00    0.0000E+00    1.000000E+07  0.00800  1.215E-02    0   0.8827   age070_m52            0.0000     8.9812E-05     6.8114   1.6060    96.5286
 23      0.0000     0.0000E+00    0.0000E+00    1.445000E+07  0.00800  8.717E-03    0   0.8552   age078_m52            0.0000     9.5482E-05     7.4563   1.6978    96.2010
 24      0.0000     0.0000E+00    0.0000E+00    2.512000E+07  0.00800  5.592E-03    0   0.8162   age090_m52            0.0000     1.0478E-04     7.0167   1.3446    98.9131
 25      0.0000     0.0000E+00    0.0000E+00    4.000000E+07  0.00800  3.896E-03    0   0.7841   age104_m52            0.0000     1.2056E-04     7.5364   1.2319   100.3409
 26      0.0000     0.0000E+00    0.0000E+00    1.015200E+08  0.00800  2.148E-03    0   0.7226   age116_m52            0.0000     1.5005E-04     8.5871   1.1292   101.2706
 27      0.0000     0.0000E+00    0.0000E+00    2.861200E+08  0.00800  9.925E-04    0   0.6683   age125_m52            0.0000     2.2582E-04     9.8226   0.5987   106.6043
 28      0.0000     0.0000E+00    0.0000E+00    9.047900E+08  0.00800  3.141E-04    0   0.6138   age135_m52            0.0000     2.6066E-04    11.5127  -0.2779   113.2010
 29      0.0000     0.0000E+00    0.0000E+00    1.434000E+09  0.00800  1.719E-04    0   0.5853   age139_m52            0.0000     2.0483E-04    11.0558  -0.8505   110.5754
 30      0.0000     0.0000E+00    0.0000E+00    2.500000E+09  0.00800  7.872E-05    0   0.5600   age150_m52            0.0000     2.2218E-04    10.9854  -1.0000   105.9523
 31      0.0000     0.0000E+00    0.0000E+00    4.250000E+09  0.00800  4.336E-05    0   0.5426   age158_m52            0.0000     2.1899E-04    10.9456  -1.0000   104.6515
 32      0.0000     0.0000E+00    0.0000E+00    6.250000E+09  0.00800  3.159E-05    0   0.5319   age166_m52            0.0000     2.9053E-04    11.5158  -1.0000   100.8517
 33      0.0000     0.0000E+00    0.0000E+00    1.300000E+10  0.00800  1.361E-05    0   0.5073   age193_m52            0.0000     5.2188E-04    17.0669  -1.0000    89.6395
 34      0.0000     0.0000E+00    0.0000E+00    1.800000E+10  0.00800  9.886E-06    0   0.4990   age213_m52            0.0000     6.4013E-04    19.2900  -1.0000    86.4775
 35      0.0000     0.0000E+00    0.0000E+00    1.000000E+06  0.02000  1.544E-02    0   1.0000   age020_m62            0.0000     9.0294E-05     9.0568   2.4538    89.9405
 36      0.0000     0.0000E+00    0.0000E+00    3.160000E+06  0.02000  3.762E-02    0   0.9858   age045_m62            0.0000     9.1437E-05     9.1182   2.3889    90.8438
 37      0.0000     0.0000E+00    0.0000E+00    5.010000E+06  0.02000  3.296E-02    0   0.9342   age055_m62            0.0000     1.1550E-04     9.4745   1.9682    95.7886
 38      0.0000     0.0000E+00    0.0000E+00    8.710000E+06  0.02000  1.154E-02    0   0.8861   age067_m62            0.0000     6.2764E-05     4.2937   1.1921    95.5196
 39      0.0000     0.0000E+00    0.0000E+00    1.445000E+07  0.02000  7.663E-03    0   0.8472   age078_m62            0.0000     7.5179E-05     5.6059   1.2890    97.6927
 40      0.0000     0.0000E+00    0.0000E+00    2.512000E+07  0.02000  4.532E-03    0   0.8099   age090_m62            0.0000     8.0707E-05     5.4789   1.2844    97.3232
 41      4.1772     7.7141E-02    1.1367E-01    5.500000E+07  0.02000  2.733E-03    0   0.7595   age110_m62            0.0000     1.1502E-04     7.3770   1.2209    99.4396
 42      0.0000     0.0000E+00    0.0000E+00    1.609000E+08  0.02000  1.369E-03    0   0.6985   age120_m62            0.0000     1.9220E-04     9.1006   0.9939   104.0010
 43      0.0000     0.0000E+00    0.0000E+00    2.861200E+08  0.02000  9.013E-04    0   0.6714   age125_m62            0.0000     2.5934E-04    10.1231   0.7066   108.0682
 44      0.0000     0.0000E+00    0.0000E+00    5.088000E+08  0.02000  5.028E-04    0   0.6449   age130_m62            0.0000     3.1079E-04    11.8998   0.2543   113.0590
 45      0.0000     0.0000E+00    0.0000E+00    9.047900E+08  0.02000  2.428E-04    0   0.6179   age135_m62            0.0000     2.5616E-04    12.2414  -0.3657   113.2542
 46      0.0000     0.0000E+00    0.0000E+00    1.434000E+09  0.02000  1.263E-04    0   0.5908   age139_m62            0.0000     2.2862E-04    12.2865  -0.8170   111.7080
 47      0.0000     0.0000E+00    0.0000E+00    2.500000E+09  0.02000  5.985E-05    0   0.5673   age150_m62            0.0000     2.5793E-04    11.6902  -1.0000   107.1473
 48      0.0000     0.0000E+00    0.0000E+00    4.250000E+09  0.02000  3.271E-05    0   0.5468   age158_m62            0.0000     3.8305E-04    13.1746  -1.0000   100.0699
 49     15.2792     5.6703E+01    5.6844E+01    1.000000E+10  0.02000  1.360E-05    0   0.5167   age181_m62            0.0000     6.3128E-04    17.4359  -1.0000    91.2917
 50      3.3715     2.3886E+01    2.3232E+01    1.800000E+10  0.02000  7.124E-06    0   0.5013   age213_m62            0.0000     8.3853E-04    21.3100  -1.0000    85.0278
 51      0.0000     0.0000E+00    0.0000E+00    1.000000E+06  0.05000  2.592E-02    0   0.9998   age020_m72            0.0000     9.0258E-05     9.0039   2.4524    89.7916
 52      0.0000     0.0000E+00    0.0000E+00    3.160000E+06  0.05000  4.845E-02    0   0.9577   age045_m72            0.0000     9.9436E-05     9.3650   2.2491    92.6315
 53      0.0000     0.0000E+00    0.0000E+00    5.010000E+06  0.05000  3.072E-02    0   0.9147   age055_m72            0.0000     7.9064E-05     6.8429   1.8412    94.7307
 54     33.1240     1.1490E-01    1.9789E-01    6.610000E+06  0.05000  1.455E-02    0   0.8877   age061_m72            0.0000     7.3217E-05     6.0435   1.2638    95.0654
 55      0.0000     0.0000E+00    0.0000E+00    1.000000E+07  0.05000  9.074E-03    0   0.8524   age070_m72            0.0000     8.3472E-05     7.3867   2.0111    94.5104
 56      0.0000     0.0000E+00    0.0000E+00    2.512000E+07  0.05000  4.250E-03    0   0.7902   age090_m72            0.0000     1.0037E-04     7.1502   1.7006    96.8104
 57      0.0000     0.0000E+00    0.0000E+00    4.000000E+07  0.05000  3.087E-03    0   0.7618   age104_m72            0.0000     1.1175E-04     7.0416   1.4744    98.4161
 58      0.0000     0.0000E+00    0.0000E+00    1.015200E+08  0.05000  1.700E-03    0   0.7096   age116_m72            0.0000     1.7726E-04     8.4829   1.1611   102.8690
 59      0.0000     0.0000E+00    0.0000E+00    2.861200E+08  0.05000  7.384E-04    0   0.6633   age125_m72            0.0000     2.9346E-04    11.0727   0.5344   110.6827
 60      0.0000     0.0000E+00    0.0000E+00    5.088000E+08  0.05000  3.819E-04    0   0.6372   age130_m72            0.0000     2.8404E-04    12.2120  -0.0231   114.3729
 61      0.0000     0.0000E+00    0.0000E+00    9.047900E+08  0.05000  1.676E-04    0   0.6110   age135_m72            0.0000     2.6349E-04    13.5459  -0.7840   114.0612
 62      0.0000     0.0000E+00    0.0000E+00    1.434000E+09  0.05000  8.837E-05    0   0.5874   age139_m72            0.0000     2.8130E-04    11.9248  -1.0000   108.8612
 63      0.0000     0.0000E+00    0.0000E+00    2.500000E+09  0.05000  4.233E-05    0   0.5598   age150_m72            0.0000     4.1039E-04    13.5645  -1.0000   101.0372
 64      4.7496     1.6705E+01    1.7012E+01    6.250000E+09  0.05000  1.435E-05    0   0.5249   age166_m72            0.0000     7.0242E-04    19.2258  -1.0000    88.4820
 65      0.0000     0.0000E+00    0.0000E+00    1.300000E+10  0.05000  6.513E-06    0   0.5036   age193_m72            0.0000     9.8775E-04    24.2045  -1.0000    81.6090
 66      0.0000     0.0000E+00    0.0000E+00    1.800000E+10  0.05000  4.527E-06    0   0.4945   age213_m72            0.0000     1.1683E-03    26.7651  -1.0000    76.8771


## Synthesis Results - Average & Chains ##

# j      x_j: min, <> & last-chain-values for 1 ...  7 chains
  1      4.8473     23.2855     23.2165     20.2171     25.1716     21.2416     24.8425     24.2202     20.4931
  2      0.0000      0.4121      0.8253      0.6374      0.0000      0.6750      0.1947      1.2003      0.8770
  3      0.0000      0.3577      0.8544      0.7962      0.7102      0.4123      0.5879      0.5040      1.3987
  4      0.0000      0.3380      1.1314      0.2344      0.0000      0.0000      0.2321      0.0721      0.1692
  5      0.0000      0.3441      0.2725      0.3711      0.2933      0.0000      0.0111      0.4849      0.0000
  6      0.0000      0.3681      0.0000      0.0000      0.3627      0.6315      0.0000      0.8053      0.8552
  7      0.0000      0.3872      0.5671      1.4998      0.0000      0.0439      0.3629      0.5665      1.9909
  8      0.0000      0.4439      1.2138      1.5148      0.0608      0.3707      0.5604      2.2470      0.0000
  9      0.0000      0.4286      0.2428      0.8400      0.0045      0.8911      0.1499      0.0000      0.0000
 10      0.0000      0.2881      0.1923      0.3759      0.3008      0.4407      0.0000      0.8775      0.2739
 11      0.0000      0.8918      1.6055      1.6206      0.9865      2.3949      0.6936      0.3505      0.3395
 12      0.0000      0.4182      0.0282      1.8611      0.8324      1.5607      0.2763      0.1738      1.5052
 13      0.0000      8.9866      8.6027      8.9038      9.2965      6.7502      9.8379      7.4816      9.2304
 14      0.0000      0.5135      0.4961      0.0000      0.0000      0.4996      0.0000      2.3582      0.1116
 15      0.0000      0.4511      0.0000      1.6508      0.0000      0.1032      0.5685      0.0074      0.0000
 16      0.9393      6.1566      6.1551      4.9739      6.6218      6.4652      6.6511      4.3832      5.3999
 17      0.0000      2.1403      1.7961      0.8410      1.9415      1.1436      2.7664      1.8783      0.5335
 18     30.7032      0.7895      0.4133      0.0000      0.5414      0.9246      1.0130      0.7953      3.8937
 19      1.4534      0.3438      0.8206      0.0000      0.2287      0.5334      0.2429      0.9779      0.9984
 20      0.0000      0.3616      0.4757      0.0000      0.5877      0.3118      1.6190      0.5011      0.0000
 21      0.0000      0.4530      0.7801      3.1522      0.0779      0.5576      0.0000      0.8248      0.2361
 22      0.0000      0.3441      0.0000      0.8111      0.0000      0.2839      0.0819      0.5235      0.0764
 23      0.0000      0.3491      0.5537      0.3808      0.0118      1.5393      0.3846      0.9601      0.1878
 24      0.0000      0.2909      0.4103      0.0000      0.3469      0.3026      0.0000      0.4597      0.1844
 25      0.0000      0.5346      0.9677      0.7127      0.0000      1.1587      0.6281      0.3998      0.2398
 26      0.0000      0.2660      0.2617      0.5996      0.4793      0.0000      0.0000      0.2996      0.0000
 27      0.0000     16.8698     16.3431     12.3098     18.4781     15.5724     19.2847     14.0982     12.8510
 28      0.0000      0.3920      0.8504      0.0982      0.2531      0.6946      0.3313      0.3691      0.0000
 29      0.0000      0.3010      0.0000      1.9930      0.2047      0.2096      0.0278      0.1102      0.0000
 30      0.0000      0.2953      0.1964      0.2970      0.1952      0.0000      0.0000      0.7537      0.0000
 31      0.0000      0.2342      1.2789      0.3968      0.2346      0.0000      0.2333      0.0455      0.0000
 32      0.0000      0.3522      0.2354      0.0000      0.5323      0.0000      0.2763      0.0380      0.0000
 33      0.0000      0.5292      0.3434      0.4708      0.1818      0.0000      0.0000      0.9673      0.4321
 34      0.0000      0.2727      0.1226      0.5421      0.0158      0.0000      0.0479      0.6061      0.0000
 35      0.0000      0.6654      0.0952      0.0000      0.7783      0.5756      0.6111      0.0922      0.0000
 36      0.0000      0.5705      0.3055      0.0000      0.6761      0.2141      0.4492      0.2620      2.1419
 37      0.0000      0.3813      0.4013      0.7191      0.5164      0.7466      0.2875      0.7288      0.1582
 38      0.0000      0.3732      0.5183      0.0000      0.1501      0.4268      0.0736      0.0487      1.8446
 39      0.0000      0.3706      0.0000      2.1307      0.5567      0.6886      0.1924      0.0000      0.0450
 40      0.0000      0.4966      0.0761      1.5387      0.2410      1.7254      0.1711      0.7148      0.0000
 41      4.1772      0.4723      0.7791      0.9813      0.5880      1.4304      0.0000      0.6796      1.5286
 42      0.0000      4.9194      4.5017      3.0255      5.2406      4.1332      5.2831      4.5147      2.4499
 43      0.0000      0.4286      0.1785      1.8262      0.3250      0.0000      0.4838      0.5131      0.9560
 44      0.0000      0.4941      0.5658      0.4162      0.1719      0.8586      0.1767      0.1784      0.0000
 45      0.0000      0.5115      0.0000      1.8195      0.4772      0.0000      0.8024      0.2972      1.0774
 46      0.0000      0.3572      0.0902      0.4178      0.7381      0.0000      0.0000      1.9116      0.0000
 47      0.0000      0.5535      1.1883      0.0000      0.0436      0.6710      0.3804      1.1022      1.4098
 48      0.0000      0.4431      0.1135      0.8573      0.1401      3.2146      0.3721      0.2587      0.9383
 49     15.2792      0.5224      0.0000      0.0000      0.2135      1.2327      0.4943      0.0000      1.2200
 50      3.3715      0.4773      0.0000      2.5386      0.2610      0.0000      0.1597      0.0120      1.5362
 51      0.0000      0.3231      0.4915      0.0832      0.5408      0.2043      0.0633      0.5113      0.0000
 52      0.0000      0.4386      0.5467      0.9857      0.3363      3.6333      0.0000      1.0325      0.6848
 53      0.0000      0.3898      0.2894      0.8026      0.6248      0.4223      0.1719      0.2294      0.6174
 54     33.1240      0.4338      0.3226      0.0000      0.5065      1.5386      0.5255      1.0271      1.1506
 55      0.0000      0.3302      0.6697      0.3228      0.0450      0.0000      0.0000      0.1875      0.0000
 56      0.0000      0.3505      0.6536      0.7128      0.2118      0.9737      0.3689      0.4101      1.2210
 57      0.0000      0.3447      0.0516      1.5990      0.0887      0.2690      0.0575      0.2208      0.4152
 58      0.0000     20.7810     20.3599     17.1317     22.0644     16.4166     23.0564     18.6323     21.6877
 59      0.0000      0.3129      0.0000      0.0921      0.0857      0.3882      0.1254      0.2769      0.0000
 60      0.0000      0.2903      0.7207      0.5803      0.2435      0.0000      0.0584      0.2699      0.1478
 61      0.0000      0.5748      0.5839      0.1472      0.2756      0.0000      0.5457      0.9761      1.6527
 62      0.0000      0.4034      0.6237      0.0000      0.8616      0.9228      0.1339      0.5048      0.0000
 63      0.0000      0.4484      0.6986      0.3512      0.5735      0.1834      0.0130      0.3164      0.8303
 64      4.7496      0.4502      0.2110      0.0000      0.6880      0.5454      0.1699      0.5599      1.6263
 65      0.0000      0.2845      0.8928      0.7874      0.0647      0.4114      0.0930      0.0000      0.0000
 66      0.0000      0.3881      0.2806      0.0000      0.3635      0.0000      0.2906      0.6414      0.0000

# j      m_j: min, <> & last-chain-values for 1 ...  7 chains
  1  4.3388E-02  4.2932E-01  4.7360E-01  3.3412E-01  5.4153E-01  4.6056E-01  5.3686E-01  5.0303E-01  3.8747E-01
  2  0.0000E+00  2.0740E-03  4.5958E-03  2.8758E-03  0.0000E+00  3.9952E-03  1.1489E-03  6.8054E-03  4.5269E-03
  3  0.0000E+00  2.6959E-03  7.1252E-03  5.3796E-03  6.2459E-03  3.6542E-03  5.1941E-03  4.2792E-03  1.0811E-02
  4  0.0000E+00  2.3992E-03  8.8853E-03  1.4914E-03  0.0000E+00  0.0000E+00  1.9307E-03  5.7652E-04  1.2318E-03
  5  0.0000E+00  4.6522E-03  4.0763E-03  4.4974E-03  4.6271E-03  0.0000E+00  1.7663E-04  7.3853E-03  0.0000E+00
  6  0.0000E+00  8.0718E-03  0.0000E+00  0.0000E+00  9.2818E-03  1.6287E-02  0.0000E+00  1.9895E-02  1.9233E-02
  7  0.0000E+00  1.2159E-02  1.9700E-02  4.2212E-02  0.0000E+00  1.6201E-03  1.3356E-02  2.0036E-02  6.4104E-02
  8  0.0000E+00  1.9263E-02  5.8281E-02  5.8925E-02  3.0802E-03  1.8917E-02  2.8507E-02  1.0985E-01  0.0000E+00
  9  0.0000E+00  2.1290E-02  1.3342E-02  3.7400E-02  2.5965E-04  5.2049E-02  8.7244E-03  0.0000E+00  0.0000E+00
 10  0.0000E+00  1.8800E-02  1.3884E-02  2.1986E-02  2.2902E-02  3.3817E-02  0.0000E+00  6.4496E-02  1.8327E-02
 11  0.0000E+00  1.0941E-01  2.1792E-01  1.7822E-01  1.4122E-01  3.4552E-01  9.9741E-02  4.8434E-02  4.2708E-02
 12  0.0000E+00  8.1394E-02  6.0754E-03  3.2466E-01  1.8901E-01  3.5719E-01  6.3036E-02  3.8108E-02  3.0039E-01
 13  0.0000E+00  4.9295E+00  5.2211E+00  4.3779E+00  5.9503E+00  4.3544E+00  6.3252E+00  4.6229E+00  5.1923E+00
 14  0.0000E+00  9.4475E-01  1.0098E+00  0.0000E+00  0.0000E+00  1.0810E+00  0.0000E+00  4.8873E+00  2.1058E-01
 15  0.0000E+00  1.3511E+00  0.0000E+00  4.4319E+00  0.0000E+00  3.6353E-01  1.9956E+00  2.5016E-02  0.0000E+00
 16  2.3093E+00  3.1178E+01  3.4488E+01  2.2579E+01  3.9129E+01  3.8504E+01  3.9480E+01  2.5005E+01  2.8044E+01
 17  0.0000E+00  1.4061E+01  1.3055E+01  4.9527E+00  1.4883E+01  8.8350E+00  2.1302E+01  1.3900E+01  3.5943E+00
 18  2.4286E-01  1.2863E-02  7.4498E-03  0.0000E+00  1.0292E-02  1.7716E-02  1.9344E-02  1.4596E-02  6.5056E-02
 19  4.6140E-03  2.2483E-03  5.9373E-03  0.0000E+00  1.7452E-03  4.1020E-03  1.8621E-03  7.2039E-03  6.6956E-03
 20  0.0000E+00  2.5811E-03  3.7573E-03  0.0000E+00  4.8959E-03  2.6174E-03  1.3547E-02  4.0299E-03  0.0000E+00
 21  0.0000E+00  3.9253E-03  7.4802E-03  2.4486E-02  7.8722E-04  5.6822E-03  0.0000E+00  8.0514E-03  2.0983E-03
 22  0.0000E+00  5.0424E-03  0.0000E+00  1.0653E-02  0.0000E+00  4.8924E-03  1.4067E-03  8.6407E-03  1.1478E-03
 23  0.0000E+00  6.9077E-03  1.2123E-02  6.7543E-03  2.7300E-04  3.5822E-02  8.9197E-03  2.1402E-02  3.8103E-03
 24  0.0000E+00  8.5636E-03  1.3366E-02  0.0000E+00  1.1917E-02  1.0476E-02  0.0000E+00  1.5246E-02  5.5662E-03
 25  0.0000E+00  2.1701E-02  4.3464E-02  2.5934E-02  0.0000E+00  5.5315E-02  2.9888E-02  1.8284E-02  9.9832E-03
 26  0.0000E+00  1.8051E-02  1.9650E-02  3.6467E-02  3.7948E-02  0.0000E+00  0.0000E+00  2.2900E-02  0.0000E+00
 27  0.0000E+00  2.2912E+00  2.4559E+00  1.4986E+00  2.9284E+00  2.4872E+00  3.0700E+00  2.1570E+00  1.7899E+00
 28  0.0000E+00  1.5449E-01  3.7088E-01  3.4685E-02  1.1641E-01  3.2195E-01  1.5307E-01  1.6387E-01  0.0000E+00
 29  0.0000E+00  2.0669E-01  0.0000E+00  1.2269E+00  1.6405E-01  1.6932E-01  2.2357E-02  8.5276E-02  0.0000E+00
 30  0.0000E+00  4.2366E-01  3.1180E-01  3.8203E-01  3.2686E-01  0.0000E+00  0.0000E+00  1.2183E+00  0.0000E+00
 31  0.0000E+00  5.9114E-01  3.5717E+00  8.9782E-01  6.9097E-01  0.0000E+00  6.9031E-01  1.2935E-01  0.0000E+00
 32  0.0000E+00  1.1961E+00  8.8450E-01  0.0000E+00  2.1095E+00  0.0000E+00  1.0998E+00  1.4529E-01  0.0000E+00
 33  0.0000E+00  3.9790E+00  2.8563E+00  3.1731E+00  1.5946E+00  0.0000E+00  0.0000E+00  8.1921E+00  3.3314E+00
 34  0.0000E+00  2.7759E+00  1.3810E+00  4.9471E+00  1.8791E-01  0.0000E+00  5.7182E-01  6.9515E+00  0.0000E+00
 35  0.0000E+00  8.6923E-03  1.3764E-03  0.0000E+00  1.1864E-02  8.8429E-03  9.3577E-03  1.3564E-03  0.0000E+00
 36  0.0000E+00  3.0156E-03  1.7867E-03  0.0000E+00  4.1695E-03  1.3309E-03  2.7827E-03  1.5601E-03  1.1610E-02
 37  0.0000E+00  2.1799E-03  2.5381E-03  3.6852E-03  3.4451E-03  5.0198E-03  1.9263E-03  4.6932E-03  9.2776E-04
 38  0.0000E+00  5.7799E-03  8.8808E-03  0.0000E+00  2.7123E-03  7.7745E-03  1.3359E-03  8.5049E-04  2.9297E-02
 39  0.0000E+00  8.2648E-03  0.0000E+00  4.2591E-02  1.4485E-02  1.8057E-02  5.0289E-03  0.0000E+00  1.0295E-03
 40  0.0000E+00  1.7901E-02  3.0343E-03  4.9717E-02  1.0136E-02  7.3139E-02  7.2302E-03  2.9024E-02  0.0000E+00
 41  1.1367E-01  2.6472E-02  4.8317E-02  4.9304E-02  3.8460E-02  9.4293E-02  0.0000E+00  4.2915E-02  8.7869E-02
 42  0.0000E+00  5.0628E-01  5.1260E-01  2.7911E-01  6.2932E-01  5.0023E-01  6.3729E-01  5.2340E-01  2.5856E-01
 43  0.0000E+00  6.4399E-02  2.9670E-02  2.4596E-01  5.6984E-02  0.0000E+00  8.5200E-02  8.6841E-02  1.4731E-01
 44  0.0000E+00  1.2784E-01  1.6195E-01  9.6526E-02  5.1877E-02  2.6121E-01  5.3568E-02  5.1993E-02  0.0000E+00
 45  0.0000E+00  2.6257E-01  0.0000E+00  8.3717E-01  2.8584E-01  0.0000E+00  4.8275E-01  1.7185E-01  5.6713E-01
 46  0.0000E+00  3.3702E-01  9.4121E-02  3.5335E-01  8.1262E-01  0.0000E+00  0.0000E+00  2.0317E+00  0.0000E+00
 47  0.0000E+00  1.0583E+00  2.5137E+00  0.0000E+00  9.7339E-02  1.5087E+00  8.5256E-01  2.3738E+00  2.7640E+00
 48  0.0000E+00  1.4942E+00  4.2331E-01  2.5912E+00  5.5105E-01  1.2747E+01  1.4706E+00  9.8254E-01  3.2445E+00
 49  5.6844E+01  4.0035E+00  0.0000E+00  0.0000E+00  1.9092E+00  1.1109E+01  4.4399E+00  0.0000E+00  9.5877E+00
 50  2.3232E+01  6.7749E+00  0.0000E+00  3.2298E+01  4.3230E+00  0.0000E+00  2.6570E+00  1.9234E-01  2.2360E+01
 51  0.0000E+00  2.5135E-03  4.2307E-03  5.8038E-04  4.9099E-03  1.8691E-03  5.7722E-04  4.4809E-03  0.0000E+00
 52  0.0000E+00  1.7485E-03  2.4117E-03  3.5227E-03  1.5646E-03  1.7035E-02  0.0000E+00  4.6371E-03  2.8001E-03
 53  0.0000E+00  2.3412E-03  1.9230E-03  4.3207E-03  4.3786E-03  2.9830E-03  1.2098E-03  1.5521E-03  3.8028E-03
 54  1.9789E-01  5.3385E-03  4.3918E-03  0.0000E+00  7.2726E-03  2.2267E-02  7.5796E-03  1.4239E-02  1.4520E-02
 55  0.0000E+00  6.2568E-03  1.4039E-02  5.4818E-03  9.9425E-04  0.0000E+00  0.0000E+00  4.0015E-03  0.0000E+00
 56  0.0000E+00  1.3146E-02  2.7119E-02  2.3963E-02  9.2678E-03  4.2945E-02  1.6214E-02  1.7325E-02  4.6959E-02
 57  0.0000E+00  1.7158E-02  2.8401E-03  7.1343E-02  5.1521E-03  1.5749E-02  3.3554E-03  1.2381E-02  2.1195E-02
 58  0.0000E+00  1.7496E+00  1.8966E+00  1.2929E+00  2.1676E+00  1.6254E+00  2.2753E+00  1.7671E+00  1.8725E+00
 59  0.0000E+00  5.6698E-02  0.0000E+00  1.4963E-02  1.8129E-02  8.2713E-02  2.6630E-02  5.6521E-02  0.0000E+00
 60  0.0000E+00  9.7706E-02  2.6836E-01  1.7506E-01  9.5614E-02  0.0000E+00  2.3038E-02  1.0233E-01  5.1019E-02
 61  0.0000E+00  4.2265E-01  4.7505E-01  9.7005E-02  2.3650E-01  0.0000E+00  4.7032E-01  8.0850E-01  1.2463E+00
 62  0.0000E+00  5.4087E-01  9.2518E-01  0.0000E+00  1.3479E+00  1.4550E+00  2.1048E-01  7.6248E-01  0.0000E+00
 63  0.0000E+00  1.1961E+00  2.0618E+00  8.3977E-01  1.7850E+00  5.7544E-01  4.0759E-02  9.5069E-01  2.2712E+00
 64  1.7012E+01  3.3216E+00  1.7224E+00  0.0000E+00  5.9230E+00  4.7319E+00  1.4695E+00  4.6536E+00  1.2305E+01
 65  0.0000E+00  4.4375E+00  1.5406E+01  1.1007E+01  1.1774E+00  7.5458E+00  1.7009E+00  0.0000E+00  0.0000E+00
 66  0.0000E+00  8.5515E+00  6.8392E+00  0.0000E+00  9.3459E+00  0.0000E+00  7.5040E+00  1.5919E+01  0.0000E+00

# AV, chi2 & Mass for <> & i_chain = 1 ...  7 solutions
AV       0.3168      0.5267      0.4330      0.3259      0.4600      0.4436      0.4768      0.4419      0.4123
chi2 4.9809E-05  1.2450E-04  1.1360E-04  1.1444E-04  1.1582E-04  1.1132E-04  1.1709E-04  1.1044E-04  1.0905E-04
Mass 9.9091E-13  6.3772E-13  5.0823E-13  5.4327E-13  4.9968E-13  4.8499E-13  5.0878E-13  5.0514E-13  5.3330E-13
 -27.35                                  [v0_min (km/s) before EX0s...]
 364.24                                  [vd_min (km/s) before EX0s...]


## Synthetic spectrum (Best Model) ##l_obs f_obs f_syn wei
 3478    [Nl_obs]
 3741.00    0.84730   0.86301    0.000
 3742.00    0.81244   0.86230    0.000
 3743.00    0.75903   0.85909    0.000
 3744.00    0.75991   0.85326    0.000
 3745.00    0.79241   0.84603    0.223
 3746.00    0.86443   0.83870    0.226
 3747.00    0.95651   0.83277    0.223
 3748.00    0.93806   0.82905    0.224
 3749.00    0.87100   0.82814    0.227
 3750.00    0.92602   0.83061    0.225
 3751.00    1.02714   0.83599    0.220
 3752.00    1.04265   0.84413    0.213
 3753.00    1.03072   0.85349    0.206
 3754.00    0.98177   0.86390    0.200
 3755.00    0.92290   0.87422    0.195
 3756.00    1.01484   0.88367    0.197
 3757.00    1.13987   0.89171    0.200
 3758.00    1.04870   0.89730    0.203
 3759.00    0.91980   0.90056    0.206
 3760.00    0.89285   0.90104    0.274
 3761.00    0.87945   0.89930    0.436
 3762.00    0.94360   0.89477    0.290
 3763.00    1.01505   0.88834    0.206
 3764.00    1.01388   0.88045    0.199
 3765.00    1.00853   0.87180    0.194
 3766.00    0.88436   0.86304    0.194
 3767.00    0.75814   0.85552    0.194
 3768.00    0.72479   0.85035    0.188
 3769.00    0.69264   0.84783    0.183
 3770.00    0.68979   0.84855    0.178
 3771.00    0.68799   0.85284    0.173
 3772.00    0.69996   0.86057    0.172
 3773.00    0.72037   0.87126    0.172
 3774.00    0.81487   0.88408    0.174
 3775.00    0.89122   0.89847    0.176
 3776.00    0.84988   0.91333    0.182
 3777.00    0.80600   0.92759    0.186
 3778.00    0.74925   0.94054    0.177
 3779.00    0.72183   0.95161    0.172
 3780.00    0.81452   0.96017    0.183
 3781.00    0.89636   0.96566    0.192
 3782.00    0.94136   0.96819    0.190
 3783.00    0.97267   0.96778    0.189
 3784.00    0.96479   0.96455    0.192
 3785.00    0.97291   0.95852    0.196
 3786.00    1.02014   0.95005    0.201
 3787.00    1.06455   0.93927    0.214
 3788.00    1.10301   0.92643    0.248
 3789.00    1.10207   0.91163    0.257
 3790.00    1.02894   0.89545    0.216
 3791.00    0.99310   0.87826    0.198
 3792.00    1.01694   0.86091    0.202
 3793.00    0.99517   0.84417    0.200
 3794.00    0.90935   0.82923    0.189
 3795.00    0.85053   0.81753    0.183
 3796.00    0.82507   0.80959    0.183
 3797.00    0.77625   0.80619    0.183
 3798.00    0.70199   0.80737    0.181
 3799.00    0.70414   0.81329    0.182
 3800.00    0.77972   0.82310    0.186
 3801.00    0.86694   0.83618    0.192
 3802.00    0.96404   0.85122    0.202
 3803.00    0.98226   0.86738    0.200
 3804.00    0.94161   0.88361    0.190
 3805.00    0.94663   0.89867    0.183
 3806.00    0.98161   0.91215    0.177
 3807.00    0.98232   0.92314    0.177
 3808.00    0.96337   0.93158    0.180
 3809.00    0.94359   0.93697    0.190
 3810.00    0.92338   0.93974    0.206
 3811.00    0.89900   0.93975    0.212
 3812.00    0.87282   0.93736    0.213
 3813.00    0.87548   0.93280    0.198
 3814.00    0.88884   0.92661    0.179
 3815.00    0.94956   0.91930    0.180
 3816.00    1.02517   0.91150    0.186
 3817.00    0.95498   0.90411    0.197
 3818.00    0.84654   0.89691    0.212
 3819.00    0.81699   0.89053    0.198
 3820.00    0.80433   0.88463    0.181
 3821.00    0.81597   0.87944    0.182
 3822.00    0.83174   0.87439    0.187
 3823.00    0.71519   0.86902    0.175
 3824.00    0.58166   0.86283    0.163
 3825.00    0.61149   0.85511    0.170
 3826.00    0.65598   0.84562    0.179
 3827.00    0.61663   0.83410    0.176
 3828.00    0.57277   0.82084    0.172
 3829.00    0.65603   0.80619    0.183
 3830.00    0.74056   0.79110    0.197
 3831.00    0.71669   0.77654    0.186
 3832.00    0.69599   0.76367    0.177
 3833.00    0.74568   0.75380    0.178
 3834.00    0.79088   0.74762    0.178
 3835.00    0.78033   0.74605    0.176
 3836.00    0.76867   0.74928    0.175
 3837.00    0.74768   0.75715    0.194
 3838.00    0.74014   0.76922    0.212
 3839.00    0.81719   0.78443    0.201
 3840.00    0.89110   0.80189    0.193
 3841.00    0.94954   0.82030    0.191
 3842.00    0.97616   0.83865    0.190
 3843.00    0.87536   0.85598    0.187
 3844.00    0.80138   0.87148    0.186
 3845.00    0.81657   0.88489    0.186
 3846.00    0.84299   0.89588    0.189
 3847.00    0.90097   0.90445    0.000
 3848.00    0.92831   0.91074    0.000
 3849.00    0.88206   0.91507    0.000
 3850.00    0.84601   0.91760    0.000
 3851.00    0.83114   0.91893    0.000
 3852.00    0.82363   0.91910    0.000
 3853.00    0.82941   0.91856    0.000
 3854.00    0.83384   0.91747    0.000
 3855.00    0.83616   0.91625    0.000
 3856.00    0.84754   0.91501    0.000
 3857.00    0.87146   0.91387    0.000
 3858.00    0.87355   0.91296    0.000
 3859.00    0.84905   0.91219    0.000
 3860.00    0.81908   0.91182    0.000
 3861.00    0.78324   0.91129    0.000
 3862.00    0.76850   0.91102    0.000
 3863.00    0.77374   0.91047    0.000
 3864.00    0.75600   0.90975    0.000
 3865.00    0.71905   0.90860    0.000
 3866.00    0.67552   0.90707    0.000
 3867.00    0.62714   0.90551    0.000
 3868.00    0.58650   0.90350    0.000
 3869.00    0.55085   0.90152    0.000
 3870.00    0.51152   0.89900    0.000
 3871.00    0.47009   0.89667    0.000
 3872.00    0.49593   0.89377    0.000
 3873.00    0.55486   0.89077    0.000
 3874.00    0.62963   0.88706    0.000
 3875.00    0.71113   0.88258    0.000
 3876.00    0.73292   0.87699    0.000
 3877.00    0.73296   0.87014    0.000
 3878.00    0.75619   0.86195    0.000
 3879.00    0.78656   0.85187    0.000
 3880.00    0.80895   0.84030    0.000
 3881.00    0.82929   0.82720    0.195
 3882.00    0.81083   0.81328    0.180
 3883.00    0.78425   0.79889    0.162
 3884.00    0.78055   0.78542    0.166
 3885.00    0.78063   0.77335    0.174
 3886.00    0.79750   0.76404    0.171
 3887.00    0.81646   0.75797    0.167
 3888.00    0.87435   0.75622    0.164
 3889.00    0.93558   0.75868    0.162
 3890.00    0.92351   0.76563    0.170
 3891.00    0.90779   0.77631    0.180
 3892.00    0.89411   0.79003    0.173
 3893.00    0.88056   0.80578    0.167
 3894.00    0.87333   0.82248    0.166
 3895.00    0.86608   0.83928    0.164
 3896.00    0.85848   0.85519    0.167
 3897.00    0.85067   0.86976    0.168
 3898.00    0.84038   0.88267    0.162
 3899.00    0.82230   0.89380    0.156
 3900.00    0.74079   0.90329    0.153
 3901.00    0.66221   0.91129    0.149
 3902.00    0.60148   0.91812    0.144
 3903.00    0.55657   0.92393    0.140
 3904.00    0.58777   0.92900    0.136
 3905.00    0.60889   0.93354    0.134
 3906.00    0.59050   0.93752    0.134
 3907.00    0.58946   0.94114    0.135
 3908.00    0.64498   0.94404    0.140
 3909.00    0.69749   0.94641    0.145
 3910.00    0.74169   0.94768    0.149
 3911.00    0.77757   0.94807    0.152
 3912.00    0.79383   0.94710    0.154
 3913.00    0.82039   0.94496    0.156
 3914.00    0.86797   0.94155    0.157
 3915.00    0.90269   0.93693    0.161
 3916.00    0.91457   0.93143    0.167
 3917.00    0.91339   0.92501    0.170
 3918.00    0.89190   0.91822    0.166
 3919.00    0.89225   0.91101    0.162
 3920.00    0.92239   0.90392    0.160
 3921.00    0.95076   0.89678    0.162
 3922.00    0.97701   0.88997    0.168
 3923.00    0.94993   0.88325    0.169
 3924.00    0.86635   0.87686    0.162
 3925.00    0.81608   0.87054    0.160
 3926.00    0.79693   0.86459    0.162
 3927.00    0.80234   0.85887    0.163
 3928.00    0.82800   0.85370    0.163
 3929.00    0.82010   0.84913    0.164
 3930.00    0.78790   0.84549    0.165
 3931.00    0.74833   0.84294    0.165
 3932.00    0.70408   0.84170    0.164
 3933.00    0.68306   0.84189    0.161
 3934.00    0.67496   0.84350    0.158
 3935.00    0.72081   0.84650    0.158
 3936.00    0.79277   0.85065    0.159
 3937.00    0.83168   0.85578    0.159
 3938.00    0.85677   0.86158    0.159
 3939.00    0.86556   0.86771    0.161
 3940.00    0.86853   0.87400    0.165
 3941.00    0.88662   0.88018    0.165
 3942.00    0.90930   0.88618    0.164
 3943.00    0.86370   0.89184    0.162
 3944.00    0.80096   0.89711    0.160
 3945.00    0.81898   0.90199    0.160
 3946.00    0.85346   0.90627    0.160
 3947.00    0.88616   0.91003    0.162
 3948.00    0.91858   0.91292    0.165
 3949.00    0.95640   0.91504    0.166
 3950.00    0.99486   0.91595    0.167
 3951.00    0.99278   0.91568    0.168
 3952.00    0.98739   0.91386    0.169
 3953.00    0.96134   0.91046    0.166
 3954.00    0.93434   0.90517    0.163
 3955.00    0.94747   0.89786    0.162
 3956.00    0.96055   0.88835    0.162
 3957.00    0.94401   0.87646    0.162
 3958.00    0.92768   0.86218    0.163
 3959.00    0.91515   0.84547    0.164
 3960.00    0.90319   0.82663    0.000
 3961.00    0.89756   0.80595    0.000
 3962.00    0.88888   0.78409    0.000
 3963.00    0.85632   0.76173    0.000
 3964.00    0.82535   0.73996    0.000
 3965.00    0.80386   0.71982    0.000
 3966.00    0.78718   0.70256    0.000
 3967.00    0.79313   0.68927    0.000
 3968.00    0.78766   0.68094    0.000
 3969.00    0.73848   0.67822    0.000
 3970.00    0.71511   0.68140    0.000
 3971.00    0.77426   0.69034    0.000
 3972.00    0.82537   0.70444    0.000
 3973.00    0.85472   0.72280    0.000
 3974.00    0.86489   0.74421    0.000
 3975.00    0.83053   0.76738    0.000
 3976.00    0.81490   0.79111    0.000
 3977.00    0.83687   0.81425    0.000
 3978.00    0.87338   0.83601    0.000
 3979.00    0.93532   0.85577    0.000
 3980.00    0.97112   0.87329    0.000
 3981.00    0.96690   0.88844    0.160
 3982.00    0.96890   0.90140    0.161
 3983.00    0.97927   0.91230    0.159
 3984.00    0.98857   0.92148    0.158
 3985.00    0.99661   0.92911    0.158
 3986.00    1.00435   0.93546    0.159
 3987.00    1.01179   0.94068    0.159
 3988.00    1.02626   0.94490    0.160
 3989.00    1.04722   0.94830    0.162
 3990.00    1.05590   0.95087    0.160
 3991.00    1.05463   0.95289    0.157
 3992.00    1.03750   0.95429    0.156
 3993.00    1.00903   0.95540    0.157
 3994.00    0.99402   0.95614    0.157
 3995.00    0.98743   0.95676    0.155
 3996.00    0.98445   0.95718    0.155
 3997.00    0.98345   0.95747    0.155
 3998.00    0.92545   0.95758    0.153
 3999.00    0.84029   0.95741    0.149
 4000.00    0.84306   0.95697    0.150
 4001.00    0.88196   0.95616    0.153
 4002.00    0.94534   0.95514    0.156
 4003.00    1.01731   0.95390    0.158
 4004.00    0.99822   0.95273    0.157
 4005.00    0.95214   0.95174    0.155
 4006.00    0.94009   0.95121    0.154
 4007.00    0.93639   0.95127    0.154
 4008.00    0.93538   0.95201    0.153
 4009.00    0.93491   0.95344    0.151
 4010.00    0.95601   0.95542    0.151
 4011.00    0.98047   0.95777    0.151
 4012.00    1.05437   0.96017    0.154
 4013.00    1.13397   0.96235    0.156
 4014.00    1.09084   0.96394    0.155
 4015.00    1.03822   0.96471    0.153
 4016.00    1.03356   0.96439    0.154
 4017.00    1.03093   0.96289    0.155
 4018.00    1.03461   0.96012    0.154
 4019.00    1.03767   0.95626    0.153
 4020.00    1.01050   0.95142    0.149
 4021.00    0.98475   0.94601    0.145
 4022.00    0.98407   0.94030    0.144
 4023.00    0.98968   0.93479    0.144
 4024.00    1.06311   0.92981    0.149
 4025.00    1.12367   0.92574    0.153
 4026.00    1.08653   0.92280    0.153
 4027.00    1.04345   0.92111    0.153
 4028.00    0.96612   0.92077    0.153
 4029.00    0.90180   0.92161    0.152
 4030.00    0.89714   0.92365    0.152
 4031.00    0.89046   0.92652    0.150
 4032.00    0.87618   0.93019    0.146
 4033.00    0.86485   0.93420    0.144
 4034.00    0.86273   0.93842    0.145
 4035.00    0.86030   0.94238    0.147
 4036.00    0.85704   0.94589    0.149
 4037.00    0.86229   0.94858    0.150
 4038.00    0.88698   0.95034    0.148
 4039.00    0.92767   0.95106    0.148
 4040.00    1.00000   0.95080    0.151
 4041.00    1.03280   0.94981    0.153
 4042.00    0.99748   0.94831    0.152
 4043.00    0.97581   0.94673    0.151
 4044.00    0.97470   0.94531    0.151
 4045.00    0.98675   0.94438    0.152
 4046.00    1.01624   0.94397    0.155
 4047.00    1.01710   0.94416    0.156
 4048.00    0.98455   0.94470    0.153
 4049.00    0.97959   0.94543    0.154
 4050.00    1.00304   0.94602    0.156
 4051.00    1.02117   0.94626    0.156
 4052.00    1.03447   0.94596    0.154
 4053.00    1.03692   0.94501    0.154
 4054.00    1.03070   0.94342    0.154
 4055.00    1.04084   0.94125    0.155
 4056.00    1.06248   0.93864    0.156
 4057.00    1.06268   0.93575    0.156
 4058.00    1.04963   0.93270    0.155
 4059.00    0.99914   0.92968    0.154
 4060.00    0.92845   0.92675    0.153
 4061.00    0.89633   0.92408    0.151
 4062.00    0.88228   0.92163    0.150
 4063.00    0.88451   0.91953    0.149
 4064.00    0.89332   0.91765    0.149
 4065.00    0.88281   0.91610    0.148
 4066.00    0.86563   0.91467    0.148
 4067.00    0.88287   0.91348    0.149
 4068.00    0.91010   0.91232    0.151
 4069.00    0.93801   0.91135    0.151
 4070.00    0.96609   0.91042    0.151
 4071.00    0.96331   0.90976    0.150
 4072.00    0.95455   0.90928    0.148
 4073.00    0.94577   0.90926    0.145
 4074.00    0.93698   0.90963    0.142
 4075.00    0.95512   0.91059    0.142
 4076.00    0.97624   0.91203    0.143
 4077.00    1.00072   0.91402    0.147
 4078.00    1.02546   0.91637    0.150
 4079.00    0.97066   0.91901    0.148
 4080.00    0.91282   0.92166    0.145
 4081.00    0.90508   0.92420    0.143
 4082.00    0.89962   0.92636    0.141
 4083.00    0.96917   0.92795    0.141
 4084.00    1.03411   0.92875    0.141
 4085.00    1.02315   0.92857    0.142
 4086.00    1.00766   0.92718    0.142
 4087.00    0.94564   0.92434    0.141
 4088.00    0.89449   0.91985    0.139
 4089.00    0.92315   0.91344    0.140
 4090.00    0.95621   0.90499    0.141
 4091.00    1.01396   0.89437    0.143
 4092.00    1.05678   0.88167    0.000
 4093.00    1.03280   0.86705    0.000
 4094.00    1.00486   0.85102    0.000
 4095.00    0.96236   0.83409    0.000
 4096.00    0.92705   0.81720    0.000
 4097.00    0.91386   0.80118    0.000
 4098.00    0.90963   0.78713    0.000
 4099.00    0.92879   0.77589    0.000
 4100.00    0.92620   0.76830    0.000
 4101.00    0.87478   0.76482    0.000
 4102.00    0.83667   0.76566    0.000
 4103.00    0.82447   0.77062    0.000
 4104.00    0.82976   0.77918    0.000
 4105.00    0.86471   0.79060    0.000
 4106.00    0.89249   0.80390    0.000
 4107.00    0.90958   0.81821    0.000
 4108.00    0.93784   0.83256    0.000
 4109.00    0.98070   0.84628    0.000
 4110.00    0.98717   0.85872    0.000
 4111.00    0.95175   0.86963    0.000
 4112.00    0.94846   0.87873    0.000
 4113.00    0.97779   0.88612    0.144
 4114.00    0.98296   0.89181    0.142
 4115.00    0.96650   0.89610    0.139
 4116.00    0.94479   0.89917    0.139
 4117.00    0.91895   0.90136    0.141
 4118.00    0.91507   0.90291    0.203
 4119.00    0.92642   0.90404    0.740
 4120.00    0.98675   0.90495   -1.000
 4121.00    1.07689   0.90569   -1.000
 4122.00    1.07009   0.90630   -1.000
 4123.00    1.01181   0.90676   -1.000
 4124.00    0.95700   0.90695   -1.000
 4125.00    0.90378   0.90693   -1.000
 4126.00    0.87873   0.90651    0.386
 4127.00    0.86485   0.90597    0.161
 4128.00    0.87499   0.90507    0.141
 4129.00    0.89325   0.90434    0.141
 4130.00    0.90909   0.90346    0.140
 4131.00    0.92423   0.90297    0.140
 4132.00    0.92441   0.90246    0.139
 4133.00    0.92106   0.90229    0.139
 4134.00    0.89775   0.90196    0.138
 4135.00    0.87066   0.90160    0.137
 4136.00    0.88462   0.90080    0.139
 4137.00    0.90457   0.89957    0.141
 4138.00    0.92317   0.89779    0.140
 4139.00    0.94162   0.89552    0.139
 4140.00    0.91447   0.89295    0.137
 4141.00    0.88417   0.89028    0.135
 4142.00    0.83485   0.88781    0.136
 4143.00    0.78488   0.88578    0.136
 4144.00    0.87212   0.88437    0.139
 4145.00    0.95670   0.88373    0.142
 4146.00    0.94485   0.88373    0.142
 4147.00    0.93224   0.88443    0.142
 4148.00    0.90789   0.88552    0.140
 4149.00    0.88458   0.88704    0.138
 4150.00    0.87158   0.88865    0.138
 4151.00    0.85615   0.89054    0.138
 4152.00    0.82352   0.89237    0.137
 4153.00    0.79269   0.89446    0.137
 4154.00    0.77162   0.89648    0.135
 4155.00    0.75939   0.89877    0.133
 4156.00    0.78581   0.90095    0.134
 4157.00    0.80227   0.90324    0.134
 4158.00    0.78290   0.90525    0.133
 4159.00    0.78863   0.90704    0.132
 4160.00    0.87012   0.90833    0.131
 4161.00    0.91723   0.90905    0.131
 4162.00    0.87606   0.90909    0.131
 4163.00    0.85873   0.90841    0.131
 4164.00    0.89405   0.90705    0.132
 4165.00    0.90759   0.90505    0.132
 4166.00    0.87940   0.90256    0.132
 4167.00    0.87098   0.89972    0.132
 4168.00    0.89563   0.89670    0.132
 4169.00    0.89973   0.89368    0.133
 4170.00    0.87373   0.89083    0.134
 4171.00    0.86336   0.88831    0.136
 4172.00    0.87312   0.88620    0.137
 4173.00    0.87835   0.88465    0.138
 4174.00    0.87843   0.88361    0.138
 4175.00    0.86422   0.88317    0.137
 4176.00    0.83570   0.88319    0.134
 4177.00    0.83973   0.88366    0.133
 4178.00    0.87251   0.88438    0.133
 4179.00    0.86911   0.88535    0.132
 4180.00    0.83759   0.88631    0.130
 4181.00    0.85097   0.88730    0.131
 4182.00    0.89507   0.88813    0.133
 4183.00    0.89140   0.88884    0.134
 4184.00    0.85912   0.88934    0.134
 4185.00    0.83971   0.88963    0.134
 4186.00    0.82705   0.88973    0.134
 4187.00    0.83925   0.88952    0.132
 4188.00    0.86273   0.88910    0.131
 4189.00    0.86921   0.88824    0.130
 4190.00    0.86906   0.88709    0.130
 4191.00    0.81812   0.88540    0.129
 4192.00    0.75031   0.88334    0.127
 4193.00    0.76253   0.88085    0.128
 4194.00    0.79706   0.87810    0.130
 4195.00    0.81379   0.87528    0.130
 4196.00    0.82643   0.87260    0.130
 4197.00    0.86649   0.87040    0.132
 4198.00    0.91160   0.86884    0.134
 4199.00    0.87513   0.86823    0.132
 4200.00    0.82714   0.86858    0.129
 4201.00    0.80676   0.87001    0.127
 4202.00    0.78920   0.87235    0.125
 4203.00    0.80484   0.87546    0.125
 4204.00    0.82265   0.87905    0.126
 4205.00    0.84957   0.88283    0.127
 4206.00    0.87670   0.88656    0.127
 4207.00    0.85593   0.88989    0.128
 4208.00    0.83654   0.89282    0.128
 4209.00    0.85765   0.89502    0.128
 4210.00    0.87734   0.89674    0.128
 4211.00    0.87626   0.89772    0.128
 4212.00    0.87448   0.89833    0.128
 4213.00    0.86607   0.89833    0.127
 4214.00    0.86071   0.89802    0.126
 4215.00    0.87635   0.89718    0.126
 4216.00    0.88661   0.89589    0.126
 4217.00    0.86826   0.89401    0.125
 4218.00    0.85067   0.89142    0.125
 4219.00    0.83638   0.88826    0.124
 4220.00    0.82743   0.88430    0.123
 4221.00    0.83729   0.88005    0.124
 4222.00    0.82783   0.87536    0.125
 4223.00    0.76118   0.87097    0.123
 4224.00    0.71496   0.86687    0.122
 4225.00    0.72034   0.86370    0.123
 4226.00    0.72817   0.86148    0.123
 4227.00    0.74133   0.86046    0.122
 4228.00    0.76171   0.86061    0.121
 4229.00    0.79573   0.86172    0.120
 4230.00    0.80412   0.86371    0.119
 4231.00    0.77031   0.86615    0.118
 4232.00    0.75137   0.86898    0.117
 4233.00    0.75387   0.87184    0.117
 4234.00    0.76671   0.87475    0.117
 4235.00    0.79267   0.87754    0.117
 4236.00    0.78991   0.88025    0.117
 4237.00    0.75503   0.88289    0.116
 4238.00    0.73236   0.88538    0.114
 4239.00    0.72172   0.88773    0.113
 4240.00    0.75003   0.88978    0.114
 4241.00    0.81223   0.89142    0.117
 4242.00    0.83590   0.89252    0.119
 4243.00    0.83002   0.89288    0.118
 4244.00    0.81997   0.89252    0.119
 4245.00    0.80710   0.89130    0.121
 4246.00    0.79028   0.88944    0.123
 4247.00    0.77112   0.88694    0.123
 4248.00    0.77491   0.88412    0.124
 4249.00    0.79051   0.88113    0.125
 4250.00    0.79856   0.87828    0.126
 4251.00    0.80325   0.87572    0.127
 4252.00    0.81363   0.87364    0.126
 4253.00    0.82619   0.87216    0.124
 4254.00    0.82248   0.87127    0.122
 4255.00    0.81347   0.87104    0.120
 4256.00    0.79999   0.87126    0.121
 4257.00    0.78529   0.87202    0.123
 4258.00    0.78490   0.87287    0.123
 4259.00    0.78770   0.87401    0.122
 4260.00    0.79887   0.87482    0.123
 4261.00    0.81153   0.87553    0.125
 4262.00    0.84842   0.87553    0.126
 4263.00    0.88862   0.87499    0.126
 4264.00    0.91123   0.87358    0.126
 4265.00    0.93213   0.87141    0.126
 4266.00    0.88078   0.86854    0.125
 4267.00    0.82502   0.86508    0.123
 4268.00    0.80929   0.86146    0.123
 4269.00    0.79450   0.85778    0.123
 4270.00    0.75228   0.85461    0.121
 4271.00    0.71104   0.85204    0.119
 4272.00    0.69558   0.85043    0.119
 4273.00    0.68279   0.84980    0.119
 4274.00    0.70676   0.85010    0.120
 4275.00    0.73269   0.85126    0.121
 4276.00    0.77630   0.85293    0.122
 4277.00    0.81160   0.85493    0.123
 4278.00    0.79152   0.85682    0.122
 4279.00    0.77729   0.85847    0.121
 4280.00    0.79335   0.85948    0.122
 4281.00    0.81075   0.85988    0.122
 4282.00    0.83374   0.85950   -2.000
 4283.00    0.84581   0.85846   -2.000
 4284.00    0.82017   0.85687   -2.000
 4285.00    0.79424   0.85471   -2.000
 4286.00    0.76746   0.85244   -2.000
 4287.00    0.75113   0.84983   -2.000
 4288.00    0.76070   0.84734   -2.000
 4289.00    0.77861   0.84468   -2.000
 4290.00    0.81434   0.84209   -2.000
 4291.00    0.83428   0.83942   -2.000
 4292.00    0.82490   0.83651   -2.000
 4293.00    0.83646   0.83346   -2.000
 4294.00    0.88197   0.82982   -2.000
 4295.00    0.86463   0.82601   -2.000
 4296.00    0.75786   0.82154   -2.000
 4297.00    0.70999   0.81696   -2.000
 4298.00    0.73584   0.81200    0.122
 4299.00    0.75095   0.80714    0.122
 4300.00    0.75419   0.80247    0.121
 4301.00    0.73287   0.79822    0.121
 4302.00    0.68766   0.79475    0.120
 4303.00    0.66177   0.79209    0.119
 4304.00    0.65245   0.79078    0.119
 4305.00    0.64758   0.79064    0.119
 4306.00    0.64606   0.79214    0.119
 4307.00    0.65946   0.79515    0.119
 4308.00    0.68276   0.79979    0.119
 4309.00    0.69513   0.80602    0.118
 4310.00    0.70113   0.81345    0.118
 4311.00    0.71450   0.82203    0.117
 4312.00    0.73159   0.83101    0.117
 4313.00    0.77101   0.84032    0.116
 4314.00    0.82022   0.84903    0.116
 4315.00    0.83856   0.85698    0.116
 4316.00    0.84526   0.86349    0.116
 4317.00    0.85535   0.86835    0.117
 4318.00    0.86652   0.87151    0.117
 4319.00    0.86422   0.87267    0.118
 4320.00    0.85832   0.87249    0.119
 4321.00    0.86218   0.87071    0.120
 4322.00    0.86817   0.86840    0.119
 4323.00    0.88129   0.86528    0.120
 4324.00    0.89564   0.86235    0.122
 4325.00    0.88349   0.85923    0.121
 4326.00    0.86783   0.85622    0.120
 4327.00    0.87209   0.85316    0.119
 4328.00    0.87822   0.84967    0.118
 4329.00    0.88897   0.84554    0.119
 4330.00    0.89999   0.84013    0.000
 4331.00    0.92047   0.83342    0.000
 4332.00    0.94070   0.82497    0.000
 4333.00    0.90693   0.81509    0.000
 4334.00    0.87416   0.80414    0.000
 4335.00    0.86519   0.79249    0.000
 4336.00    0.85635   0.78118    0.000
 4337.00    0.84912   0.77063    0.000
 4338.00    0.84131   0.76222    0.000
 4339.00    0.82850   0.75627    0.000
 4340.00    0.81992   0.75354    0.000
 4341.00    0.83871   0.75412    0.000
 4342.00    0.85151   0.75791    0.000
 4343.00    0.83414   0.76459    0.000
 4344.00    0.82603   0.77337    0.000
 4345.00    0.85575   0.78388    0.000
 4346.00    0.87687   0.79503    0.000
 4347.00    0.86892   0.80654    0.000
 4348.00    0.86775   0.81759    0.000
 4349.00    0.88590   0.82795    0.000
 4350.00    0.89874   0.83736    0.000
 4351.00    0.89860   0.84582    0.122
 4352.00    0.90291   0.85337    0.122
 4353.00    0.91657   0.86023    0.123
 4354.00    0.92075   0.86661    0.150
 4355.00    0.90761   0.87252    0.395
 4356.00    0.89296   0.87801   -1.000
 4357.00    0.87590   0.88307   -1.000
 4358.00    0.87153   0.88774   -1.000
 4359.00    0.88496   0.89193   -1.000
 4360.00    0.88268   0.89555   -1.000
 4361.00    0.86102   0.89831   -1.000
 4362.00    0.85802   0.90032    0.491
 4363.00    0.87530   0.90130    0.159
 4364.00    0.90423   0.90139    0.120
 4365.00    0.94434   0.90054    0.122
 4366.00    0.93791   0.89900    0.122
 4367.00    0.89213   0.89683    0.120
 4368.00    0.87156   0.89405    0.120
 4369.00    0.86977   0.89090    0.121
 4370.00    0.86011   0.88742    0.121
 4371.00    0.84531   0.88386    0.120
 4372.00    0.83710   0.88004    0.120
 4373.00    0.83267   0.87613    0.121
 4374.00    0.84393   0.87207    0.122
 4375.00    0.86302   0.86802    0.122
 4376.00    0.85430   0.86361    0.121
 4377.00    0.83359   0.85908    0.120
 4378.00    0.82638   0.85411    0.120
 4379.00    0.82417   0.84909    0.120
 4380.00    0.80071   0.84397    0.119
 4381.00    0.77059   0.83920    0.118
 4382.00    0.77842   0.83501    0.119
 4383.00    0.79618   0.83165    0.120
 4384.00    0.81794   0.82935    0.119
 4385.00    0.84054   0.82813    0.119
 4386.00    0.83332   0.82839    0.118
 4387.00    0.82104   0.83000    0.117
 4388.00    0.82015   0.83298    0.117
 4389.00    0.82071   0.83678    0.117
 4390.00    0.82176   0.84148    0.117
 4391.00    0.82286   0.84678    0.118
 4392.00    0.85133   0.85212    0.119
 4393.00    0.88125   0.85702    0.120
 4394.00    0.86519   0.86113    0.118
 4395.00    0.84826   0.86449    0.116
 4396.00    0.83379   0.86694    0.116
 4397.00    0.81982   0.86833    0.116
 4398.00    0.81682   0.86881    0.116
 4399.00    0.81545   0.86830    0.116
 4400.00    0.83432   0.86709    0.117
 4401.00    0.84836   0.86561    0.119
 4402.00    0.82177   0.86400    0.119
 4403.00    0.79667   0.86273    0.119
 4404.00    0.78093   0.86165    0.117
 4405.00    0.76750   0.86095    0.116
 4406.00    0.76546   0.86091    0.115
 4407.00    0.76702   0.86170    0.115
 4408.00    0.78297   0.86313    0.115
 4409.00    0.81267   0.86502    0.116
 4410.00    0.88797   0.86700    0.116
 4411.00    0.93856   0.86933    0.117
 4412.00    0.91990   0.87176    0.117
 4413.00    0.89976   0.87401    0.117
 4414.00    0.87606   0.87603    0.117
 4415.00    0.85684   0.87794    0.116
 4416.00    0.84694   0.87977    0.115
 4417.00    0.84617   0.88126    0.115
 4418.00    0.86183   0.88253    0.115
 4419.00    0.88251   0.88365    0.116
 4420.00    0.91108   0.88460    0.115
 4421.00    0.92495   0.88512    0.115
 4422.00    0.91851   0.88572    0.116
 4423.00    0.90541   0.88601    0.116
 4424.00    0.88420   0.88579    0.116
 4425.00    0.88826   0.88517    0.116
 4426.00    0.91941   0.88418    0.116
 4427.00    0.92867   0.88301    0.115
 4428.00    0.91725   0.88181    0.115
 4429.00    0.89749   0.88073    0.115
 4430.00    0.87079   0.87977    0.113
 4431.00    0.88937   0.87902    0.114
 4432.00    0.94121   0.87834    0.116
 4433.00    0.91690   0.87807    0.116
 4434.00    0.84350   0.87804    0.115
 4435.00    0.81125   0.87846    0.114
 4436.00    0.80222   0.87939    0.114
 4437.00    0.82960   0.88049    0.115
 4438.00    0.87486   0.88199    0.116
 4439.00    0.91637   0.88363    0.116
 4440.00    0.95630   0.88528    0.116
 4441.00    0.95484   0.88717    0.116
 4442.00    0.93833   0.88891    0.117
 4443.00    0.91357   0.89052    0.116
 4444.00    0.88627   0.89167    0.114
 4445.00    0.86099   0.89223    0.114
 4446.00    0.83622   0.89225    0.114
 4447.00    0.85135   0.89165    0.114
 4448.00    0.87480   0.89048    0.114
 4449.00    0.87265   0.88880    0.114
 4450.00    0.86629   0.88628    0.113
 4451.00    0.87077   0.88321    0.112
 4452.00    0.87659   0.87946    0.111
 4453.00    0.85338   0.87567    0.111
 4454.00    0.82770   0.87167    0.111
 4455.00    0.81246   0.86793    0.111
 4456.00    0.79774   0.86479    0.111
 4457.00    0.82911   0.86182    0.110
 4458.00    0.86028   0.85976    0.110
 4459.00    0.83316   0.85797    0.109
 4460.00    0.80733   0.85713    0.108
 4461.00    0.80732   0.85681    0.000
 4462.00    0.80914   0.85670    0.000
 4463.00    0.83250   0.85721    0.000
 4464.00    0.85116   0.85772    0.000
 4465.00    0.83161   0.85882    0.000
 4466.00    0.82048   0.86014    0.000
 4467.00    0.86061   0.86199    0.000
 4468.00    0.89560   0.86417    0.000
 4469.00    0.90595   0.86641    0.000
 4470.00    0.91449   0.86947    0.000
 4471.00    0.91592   0.87236    0.000
 4472.00    0.91608   0.87581    0.000
 4473.00    0.91212   0.87892    0.000
 4474.00    0.90367   0.88235    0.000
 4475.00    0.88287   0.88555    0.000
 4476.00    0.87043   0.88880    0.000
 4477.00    0.87771   0.89195    0.000
 4478.00    0.88479   0.89443    0.000
 4479.00    0.89148   0.89643    0.000
 4480.00    0.88956   0.89788    0.000
 4481.00    0.87240   0.89905    0.000
 4482.00    0.87702   0.89973    0.108
 4483.00    0.91542   0.90027    0.108
 4484.00    0.93621   0.90054    0.108
 4485.00    0.93304   0.90078    0.108
 4486.00    0.92711   0.90103    0.109
 4487.00    0.91786   0.90099    0.109
 4488.00    0.91317   0.90099    0.110
 4489.00    0.91330   0.90072    0.109
 4490.00    0.90834   0.90053    0.109
 4491.00    0.89862   0.90051    0.109
 4492.00    0.90189   0.90048    0.109
 4493.00    0.91581   0.90119    0.110
 4494.00    0.91900   0.90206    0.109
 4495.00    0.91442   0.90414    0.108
 4496.00    0.89810   0.90672    0.108
 4497.00    0.87433   0.90977    0.109
 4498.00    0.88000   0.91292    0.109
 4499.00    0.90203   0.91625    0.109
 4500.00    0.93129   0.92006    0.109
 4501.00    0.96403   0.92351    0.110
 4502.00    0.96104   0.92706    0.110
 4503.00    0.94314   0.92985    0.109
 4504.00    0.94358   0.93205    0.109
 4505.00    0.95056   0.93325    0.109
 4506.00    0.96396   0.93379    0.109
 4507.00    0.97929   0.93399    0.109
 4508.00    0.96202   0.93325    0.107
 4509.00    0.93659   0.93199    0.106
 4510.00    0.95704   0.93002    0.106
 4511.00    0.98681   0.92771    0.107
 4512.00    0.97217   0.92546    0.107
 4513.00    0.95045   0.92316    0.106
 4514.00    0.93257   0.92097    0.107
 4515.00    0.91514   0.91837    0.109
 4516.00    0.91650   0.91558    0.109
 4517.00    0.91939   0.91284    0.108
 4518.00    0.90459   0.90981    0.108
 4519.00    0.88898   0.90654    0.107
 4520.00    0.89797   0.90282    0.107
 4521.00    0.90750   0.89875    0.108
 4522.00    0.92954   0.89392    0.108
 4523.00    0.94965   0.88948    0.108
 4524.00    0.93373   0.88461    0.108
 4525.00    0.91672   0.88016    0.108
 4526.00    0.88743   0.87552    0.107
 4527.00    0.86541   0.87118    0.105
 4528.00    0.90023   0.86787    0.106
 4529.00    0.92681   0.86529    0.107
 4530.00    0.90472   0.86409    0.107
 4531.00    0.88498   0.86331    0.107
 4532.00    0.87625   0.86386    0.106
 4533.00    0.87012   0.86450    0.106
 4534.00    0.87394   0.86632    0.105
 4535.00    0.87891   0.86819    0.105
 4536.00    0.88753   0.87059    0.105
 4537.00    0.89878   0.87274    0.106
 4538.00    0.91710   0.87428    0.106
 4539.00    0.93065   0.87630    0.107
 4540.00    0.93314   0.87768    0.108
 4541.00    0.92610   0.87973    0.108
 4542.00    0.89995   0.88035    0.108
 4543.00    0.87780   0.88088    0.108
 4544.00    0.86261   0.88115    0.107
 4545.00    0.86410   0.88117    0.107
 4546.00    0.89109   0.88179    0.107
 4547.00    0.91434   0.88216    0.107
 4548.00    0.93257   0.88274    0.108
 4549.00    0.90974   0.88302    0.107
 4550.00    0.83837   0.88445    0.000
 4551.00    0.82307   0.88584    0.000
 4552.00    0.86623   0.88778    0.000
 4553.00    0.89633   0.88972    0.000
 4554.00    0.91443   0.89201    0.000
 4555.00    0.90485   0.89507    0.000
 4556.00    0.87285   0.89728    0.000
 4557.00    0.87303   0.89976    0.000
 4558.00    0.89616   0.90194    0.000
 4559.00    0.91372   0.90402    0.000
 4560.00    0.92781   0.90589    0.000
 4561.00    0.90420   0.90756    0.000
 4562.00    0.85999   0.90870    0.000
 4563.00    0.87594   0.90929    0.000
 4564.00    0.92049   0.90945    0.000
 4565.00    0.95435   0.90948    0.000
 4566.00    0.98383   0.90963    0.000
 4567.00    0.94004   0.90936    0.000
 4568.00    0.87059   0.90921    0.000
 4569.00    0.87703   0.90916    0.000
 4570.00    0.90591   0.90902    0.000
 4571.00    0.92611   0.90888    0.000
 4572.00    0.94418   0.90822    0.000
 4573.00    0.90979   0.90705    0.000
 4574.00    0.86501   0.90567    0.000
 4575.00    0.88171   0.90413    0.000
 4576.00    0.90792   0.90231    0.000
 4577.00    0.88944   0.90112    0.000
 4578.00    0.86585   0.89941    0.000
 4579.00    0.85866   0.89729    0.000
 4580.00    0.85272   0.89591    0.000
 4581.00    0.90236   0.89438    0.000
 4582.00    0.95430   0.89341    0.000
 4583.00    0.91604   0.89239    0.000
 4584.00    0.87799   0.89176    0.000
 4585.00    0.88236   0.89132    0.000
 4586.00    0.88858   0.89103    0.000
 4587.00    0.92707   0.89076    0.000
 4588.00    0.96032   0.89004    0.000
 4589.00    0.93745   0.88959    0.000
 4590.00    0.91547   0.88874    0.000
 4591.00    0.90013   0.88803    0.000
 4592.00    0.88508   0.88743    0.000
 4593.00    0.87172   0.88632    0.000
 4594.00    0.86297   0.88550    0.000
 4595.00    0.87530   0.88449    0.000
 4596.00    0.88421   0.88389    0.000
 4597.00    0.88035   0.88403    0.000
 4598.00    0.87951   0.88413    0.000
 4599.00    0.88815   0.88504    0.000
 4600.00    0.88745   0.88591    0.000
 4601.00    0.86193   0.88794    0.000
 4602.00    0.84176   0.88994    0.000
 4603.00    0.83379   0.89248    0.000
 4604.00    0.84703   0.89526    0.000
 4605.00    0.90211   0.89764    0.000
 4606.00    0.94059   0.90072    0.000
 4607.00    0.95052   0.90335    0.000
 4608.00    0.95291   0.90613    0.000
 4609.00    0.94394   0.90840    0.000
 4610.00    0.93581   0.91105    0.000
 4611.00    0.92880   0.91287    0.000
 4612.00    0.93316   0.91463    0.000
 4613.00    0.95079   0.91582    0.000
 4614.00    0.95516   0.91642    0.000
 4615.00    0.94589   0.91689    0.000
 4616.00    0.93054   0.91745    0.000
 4617.00    0.90968   0.91781    0.000
 4618.00    0.90775   0.91766    0.000
 4619.00    0.92095   0.91801    0.000
 4620.00    0.93427   0.91748    0.000
 4621.00    0.94768   0.91695    0.000
 4622.00    0.95318   0.91631    0.000
 4623.00    0.95380   0.91550    0.000
 4624.00    0.93071   0.91427    0.000
 4625.00    0.89486   0.91322    0.000
 4626.00    0.89189   0.91181    0.000
 4627.00    0.90430   0.90998    0.000
 4628.00    0.92480   0.90782    0.000
 4629.00    0.94857   0.90550    0.000
 4630.00    0.93893   0.90288    0.000
 4631.00    0.91780   0.90015    0.000
 4632.00    0.90446   0.89705    0.000
 4633.00    0.89338   0.89358    0.000
 4634.00    0.90076   0.89031    0.000
 4635.00    0.91255   0.88665    0.000
 4636.00    0.88723   0.88350    0.000
 4637.00    0.85474   0.87984    0.000
 4638.00    0.85295   0.87653    0.000
 4639.00    0.85577   0.87314    0.000
 4640.00    0.87574   0.86988    0.000
 4641.00    0.89760   0.86662    0.000
 4642.00    0.89332   0.86351    0.000
 4643.00    0.88713   0.86149    0.000
 4644.00    0.86776   0.85979    0.000
 4645.00    0.84788   0.85881    0.000
 4646.00    0.86767   0.85845    0.000
 4647.00    0.88721   0.85845    0.000
 4648.00    0.89003   0.85920    0.000
 4649.00    0.89283   0.86001    0.000
 4650.00    0.89537   0.86175    0.000
 4651.00    0.89783   0.86404    0.000
 4652.00    0.89940   0.86695    0.000
 4653.00    0.89688   0.87043    0.000
 4654.00    0.86451   0.87335    0.000
 4655.00    0.83581   0.87637    0.000
 4656.00    0.82763   0.87791    0.000
 4657.00    0.82786   0.87928    0.000
 4658.00    0.86557   0.87965    0.000
 4659.00    0.89696   0.87946    0.000
 4660.00    0.90517   0.87904    0.000
 4661.00    0.91135   0.87731    0.000
 4662.00    0.91131   0.87509    0.000
 4663.00    0.90308   0.87243    0.000
 4664.00    0.87350   0.87002    0.000
 4665.00    0.85273   0.86753    0.000
 4666.00    0.85172   0.86546    0.000
 4667.00    0.84754   0.86381    0.000
 4668.00    0.83721   0.86235    0.000
 4669.00    0.83210   0.86164    0.000
 4670.00    0.83587   0.86135    0.000
 4671.00    0.84840   0.86198    0.000
 4672.00    0.87396   0.86274    0.000
 4673.00    0.88899   0.86366    0.000
 4674.00    0.89029   0.86428    0.000
 4675.00    0.89309   0.86451    0.000
 4676.00    0.89763   0.86459    0.000
 4677.00    0.88293   0.86414    0.000
 4678.00    0.84874   0.86417    0.000
 4679.00    0.84889   0.86364    0.000
 4680.00    0.87974   0.86274    0.000
 4681.00    0.89463   0.86199    0.000
 4682.00    0.89697   0.86126    0.000
 4683.00    0.89602   0.86073    0.000
 4684.00    0.89280   0.86054    0.000
 4685.00    0.88085   0.86079    0.000
 4686.00    0.86359   0.86090    0.000
 4687.00    0.85973   0.86143    0.000
 4688.00    0.86296   0.86223    0.000
 4689.00    0.87630   0.86293    0.000
 4690.00    0.89428   0.86392    0.000
 4691.00    0.89406   0.86485    0.000
 4692.00    0.88662   0.86547    0.000
 4693.00    0.87493   0.86508    0.000
 4694.00    0.86181   0.86472    0.000
 4695.00    0.85257   0.86437    0.000
 4696.00    0.84443   0.86343    0.000
 4697.00    0.83883   0.86241    0.000
 4698.00    0.83382   0.86084    0.000
 4699.00    0.83883   0.85967    0.000
 4700.00    0.84573   0.85810    0.000
 4701.00    0.84158   0.85647    0.000
 4702.00    0.83582   0.85513    0.000
 4703.00    0.83467   0.85399    0.000
 4704.00    0.83400   0.85356    0.000
 4705.00    0.86050   0.85323    0.000
 4706.00    0.88886   0.85416    0.000
 4707.00    0.86727   0.85459    0.000
 4708.00    0.84399   0.85551    0.000
 4709.00    0.85349   0.85661    0.000
 4710.00    0.86308   0.85843    0.000
 4711.00    0.87399   0.86096    0.000
 4712.00    0.88486   0.86378    0.000
 4713.00    0.89502   0.86720    0.000
 4714.00    0.90393   0.87042    0.000
 4715.00    0.90069   0.87373    0.000
 4716.00    0.89829   0.87670    0.000
 4717.00    0.90194   0.87942    0.000
 4718.00    0.90285   0.88193    0.000
 4719.00    0.88891   0.88450    0.000
 4720.00    0.87530   0.88609    0.000
 4721.00    0.86317   0.88712    0.000
 4722.00    0.85885   0.88650    0.000
 4723.00    0.88258   0.88542    0.000
 4724.00    0.89974   0.88372    0.000
 4725.00    0.89715   0.88170    0.000
 4726.00    0.89807   0.87992    0.000
 4727.00    0.90799   0.87801    0.000
 4728.00    0.91181   0.87637    0.000
 4729.00    0.90215   0.87419    0.000
 4730.00    0.88706   0.87309    0.000
 4731.00    0.86160   0.87192    0.000
 4732.00    0.85282   0.87150    0.000
 4733.00    0.87184   0.87230    0.000
 4734.00    0.87578   0.87336    0.000
 4735.00    0.85767   0.87475    0.000
 4736.00    0.85604   0.87590    0.000
 4737.00    0.87560   0.87777    0.000
 4738.00    0.88706   0.87938    0.000
 4739.00    0.88934   0.88099    0.000
 4740.00    0.88033   0.88280    0.000
 4741.00    0.86005   0.88462    0.000
 4742.00    0.86712   0.88612    0.000
 4743.00    0.89830   0.88725    0.000
 4744.00    0.91308   0.88820    0.000
 4745.00    0.91512   0.88888    0.000
 4746.00    0.91662   0.88939    0.000
 4747.00    0.91775   0.88900    0.000
 4748.00    0.90574   0.88894    0.000
 4749.00    0.88588   0.88796    0.000
 4750.00    0.89533   0.88686    0.000
 4751.00    0.92010   0.88543    0.000
 4752.00    0.91772   0.88360    0.000
 4753.00    0.90305   0.88177    0.000
 4754.00    0.90796   0.87922    0.000
 4755.00    0.92050   0.87728    0.000
 4756.00    0.92112   0.87442    0.000
 4757.00    0.91779   0.87180    0.000
 4758.00    0.89818   0.86931    0.000
 4759.00    0.87404   0.86664    0.000
 4760.00    0.85775   0.86431    0.000
 4761.00    0.84326   0.86188    0.111
 4762.00    0.86069   0.86050    0.101
 4763.00    0.88396   0.85902    0.101
 4764.00    0.86499   0.85817    0.101
 4765.00    0.84007   0.85817    0.101
 4766.00    0.87611   0.85805    0.102
 4767.00    0.91833   0.85877    0.103
 4768.00    0.90009   0.85973    0.103
 4769.00    0.87793   0.86174    0.102
 4770.00    0.84999   0.86385    0.102
 4771.00    0.82197   0.86576    0.101
 4772.00    0.84743   0.86825    0.102
 4773.00    0.87250   0.86965    0.102
 4774.00    0.88602   0.87093    0.102
 4775.00    0.89882   0.87202    0.102
 4776.00    0.90135   0.87275    0.101
 4777.00    0.90359   0.87318    0.100
 4778.00    0.90306   0.87246    0.099
 4779.00    0.89730   0.87205    0.098
 4780.00    0.85570   0.87123    0.097
 4781.00    0.82216   0.86962    0.096
 4782.00    0.83131   0.86880    0.097
 4783.00    0.83411   0.86781    0.098
 4784.00    0.80984   0.86689    0.097
 4785.00    0.79085   0.86642    0.097
 4786.00    0.79043   0.86623    0.097
 4787.00    0.80070   0.86693    0.097
 4788.00    0.84251   0.86747    0.098
 4789.00    0.87076   0.86887    0.098
 4790.00    0.86483   0.87075    0.099
 4791.00    0.86168   0.87208    0.100
 4792.00    0.86456   0.87386    0.099
 4793.00    0.87044   0.87519    0.099
 4794.00    0.88194   0.87637    0.099
 4795.00    0.88524   0.87734    0.100
 4796.00    0.87504   0.87830    0.100
 4797.00    0.87249   0.87899    0.100
 4798.00    0.88098   0.87896    0.100
 4799.00    0.88789   0.87866    0.101
 4800.00    0.89279   0.87762    0.101
 4801.00    0.89309   0.87672    0.102
 4802.00    0.88828   0.87548    0.103
 4803.00    0.89524   0.87469    0.103
 4804.00    0.91381   0.87413    0.101
 4805.00    0.90759   0.87331    0.101
 4806.00    0.87984   0.87281    0.101
 4807.00    0.86586   0.87200    0.101
 4808.00    0.86242   0.87180    0.101
 4809.00    0.86444   0.87179    0.100
 4810.00    0.87013   0.87194    0.099
 4811.00    0.87917   0.87271    0.100
 4812.00    0.89017   0.87354    0.101
 4813.00    0.87784   0.87419    0.101
 4814.00    0.85351   0.87495    0.100
 4815.00    0.87118   0.87541    0.099
 4816.00    0.90754   0.87589    0.099
 4817.00    0.90445   0.87609    0.099
 4818.00    0.88627   0.87554    0.100
 4819.00    0.89559   0.87526    0.100
 4820.00    0.91385   0.87440    0.101
 4821.00    0.92698   0.87349    0.101
 4822.00    0.93870   0.87239    0.100
 4823.00    0.93252   0.87088    0.099
 4824.00    0.92234   0.86949    0.098
 4825.00    0.89463   0.86762    0.099
 4826.00    0.86380   0.86592    0.100
 4827.00    0.85862   0.86484    0.100
 4828.00    0.85694   0.86385    0.100
 4829.00    0.85173   0.86268    0.099
 4830.00    0.84618   0.86166    0.099
 4831.00    0.83586   0.86060    0.098
 4832.00    0.82525   0.86002    0.097
 4833.00    0.84862   0.85896    0.098
 4834.00    0.87274   0.85785    0.100
 4835.00    0.86839   0.85731    0.099
 4836.00    0.86440   0.85646    0.098
 4837.00    0.87012   0.85559    0.099
 4838.00    0.87465   0.85411    0.099
 4839.00    0.86296   0.85313    0.099
 4840.00    0.85060   0.85186    0.099
 4841.00    0.83221   0.85001    0.098
 4842.00    0.82095   0.84843    0.097
 4843.00    0.85702   0.84623    0.097
 4844.00    0.88324   0.84360    0.098
 4845.00    0.85866   0.83998    0.098
 4846.00    0.83926   0.83602    0.097
 4847.00    0.84142   0.83210    0.097
 4848.00    0.84201   0.82657    0.000
 4849.00    0.83719   0.81976    0.000
 4850.00    0.83229   0.81153    0.000
 4851.00    0.82715   0.80235    0.000
 4852.00    0.82493   0.79340    0.000
 4853.00    0.82990   0.78370    0.000
 4854.00    0.83179   0.77379    0.000
 4855.00    0.82711   0.76348    0.000
 4856.00    0.80911   0.75259    0.000
 4857.00    0.76647   0.74292    0.000
 4858.00    0.74277   0.73507    0.000
 4859.00    0.74973   0.73005    0.000
 4860.00    0.75440   0.72700    0.000
 4861.00    0.75583   0.72449    0.000
 4862.00    0.76808   0.72419    0.000
 4863.00    0.79387   0.72541    0.000
 4864.00    0.80109   0.72970    0.000
 4865.00    0.78787   0.73634    0.000
 4866.00    0.78244   0.74300    0.000
 4867.00    0.78456   0.75092    0.000
 4868.00    0.78572   0.75841    0.000
 4869.00    0.78604   0.76656    0.000
 4870.00    0.79697   0.77464    0.000
 4871.00    0.81592   0.78271    0.000
 4872.00    0.83807   0.79059    0.000
 4873.00    0.86235   0.79649    0.000
 4874.00    0.84740   0.80305    0.000
 4875.00    0.80968   0.80893    0.095
 4876.00    0.79866   0.81391    0.095
 4877.00    0.80113   0.81805    0.095
 4878.00    0.81931   0.82109    0.096
 4879.00    0.84436   0.82402    0.096
 4880.00    0.85473   0.82546    0.097
 4881.00    0.85958   0.82668    0.097
 4882.00    0.85171   0.82797    0.096
 4883.00    0.83978   0.82795    0.096
 4884.00    0.83344   0.82850    0.097
 4885.00    0.82860   0.82951    0.097
 4886.00    0.82032   0.82980    0.097
 4887.00    0.81128   0.83084    0.096
 4888.00    0.80929   0.83188    0.096
 4889.00    0.80852   0.83471    0.096
 4890.00    0.82222   0.83822    0.096
 4891.00    0.83783   0.84142    0.097
 4892.00    0.84543   0.84540    0.097
 4893.00    0.85228   0.84802    0.096
 4894.00    0.85699   0.85193    0.097
 4895.00    0.86158   0.85625    0.097
 4896.00    0.86589   0.85969    0.098
 4897.00    0.87015   0.86260    0.099
 4898.00    0.86890   0.86438    0.097
 4899.00    0.86690   0.86563    0.096
 4900.00    0.84707   0.86608    0.097
 4901.00    0.82997   0.86634    0.097
 4902.00    0.84819   0.86615    0.098
 4903.00    0.86261   0.86588    0.098
 4904.00    0.84409   0.86465    0.097
 4905.00    0.83239   0.86250    0.097
 4906.00    0.86456   0.86068    0.098
 4907.00    0.88828   0.85884    0.099
 4908.00    0.86952   0.85698    0.099
 4909.00    0.85439   0.85430    0.099
 4910.00    0.85401   0.85129    0.099
 4911.00    0.85417   0.84807    0.098
 4912.00    0.85616   0.84483    0.099
 4913.00    0.86232   0.84156    0.100
 4914.00    0.88036   0.83817    0.099
 4915.00    0.89530   0.83425    0.099
 4916.00    0.90267   0.83046    0.099
 4917.00    0.89732   0.82790    0.099
 4918.00    0.86528   0.82554    0.098
 4919.00    0.83561   0.82456    0.097
 4920.00    0.81029   0.82346    0.097
 4921.00    0.79453   0.82341    0.097
 4922.00    0.79399   0.82438    0.096
 4923.00    0.79969   0.82635    0.096
 4924.00    0.81411   0.83032    0.096
 4925.00    0.82869   0.83382    0.096
 4926.00    0.84347   0.83775    0.096
 4927.00    0.85337   0.84065    0.096
 4928.00    0.85798   0.84381    0.097
 4929.00    0.87393   0.84689    0.097
 4930.00    0.90075   0.84857    0.097
 4931.00    0.90271   0.85068    0.097
 4932.00    0.88368   0.85195    0.096
 4933.00    0.86114   0.85243    0.095
 4934.00    0.83598   0.85246    0.096
 4935.00    0.82675   0.85148    0.095
 4936.00    0.82793   0.85139    0.094
 4937.00    0.82660   0.85285    0.094
 4938.00    0.82383   0.85439    0.095
 4939.00    0.82072   0.85513    0.096
 4940.00    0.81744   0.85595    0.000
 4941.00    0.83360   0.85777    0.000
 4942.00    0.85813   0.86017    0.000
 4943.00    0.85861   0.86286    0.000
 4944.00    0.85022   0.86499    0.000
 4945.00    0.85979   0.86682    0.000
 4946.00    0.87499   0.86829    0.000
 4947.00    0.85125   0.86809    0.000
 4948.00    0.81737   0.86780    0.000
 4949.00    0.83766   0.86735    0.000
 4950.00    0.86949   0.86582    0.000
 4951.00    0.89479   0.86389    0.000
 4952.00    0.91898   0.86040    0.000
 4953.00    0.88652   0.85749    0.000
 4954.00    0.84684   0.85344    0.000
 4955.00    0.83513   0.84946    0.000
 4956.00    0.82589   0.84762    0.000
 4957.00    0.84398   0.84480    0.000
 4958.00    0.86352   0.84247    0.000
 4959.00    0.84320   0.83911    0.000
 4960.00    0.82221   0.83693    0.000
 4961.00    0.80853   0.83763    0.000
 4962.00    0.79662   0.83704    0.000
 4963.00    0.82331   0.83651    0.000
 4964.00    0.84380   0.83640    0.000
 4965.00    0.78818   0.83626    0.000
 4966.00    0.74480   0.83722    0.000
 4967.00    0.80392   0.83712    0.000
 4968.00    0.85361   0.83712    0.000
 4969.00    0.84443   0.83816    0.000
 4970.00    0.83232   0.83768    0.000
 4971.00    0.80590   0.83770    0.000
 4972.00    0.79203   0.83694    0.000
 4973.00    0.82816   0.83534    0.000
 4974.00    0.85033   0.83439    0.000
 4975.00    0.82629   0.83176    0.000
 4976.00    0.81107   0.82963    0.000
 4977.00    0.82048   0.82739    0.000
 4978.00    0.83055   0.82416    0.000
 4979.00    0.84216   0.82144    0.000
 4980.00    0.84013   0.81816    0.000
 4981.00    0.80994   0.81617    0.000
 4982.00    0.78837   0.81531    0.000
 4983.00    0.78229   0.81386    0.000
 4984.00    0.78214   0.81318    0.000
 4985.00    0.79130   0.81274    0.000
 4986.00    0.79941   0.81306    0.000
 4987.00    0.80607   0.81446    0.000
 4988.00    0.80803   0.81493    0.000
 4989.00    0.80427   0.81645    0.000
 4990.00    0.81952   0.81742    0.000
 4991.00    0.85512   0.81688    0.000
 4992.00    0.86856   0.81729    0.000
 4993.00    0.86110   0.81667    0.000
 4994.00    0.84557   0.81605    0.000
 4995.00    0.82332   0.81506    0.000
 4996.00    0.80286   0.81179    0.000
 4997.00    0.78370   0.80935    0.000
 4998.00    0.77963   0.80689    0.000
 4999.00    0.78525   0.80370    0.000
 5000.00    0.78753   0.80142    0.000
 5001.00    0.78793   0.79761    0.000
 5002.00    0.78085   0.79382    0.000
 5003.00    0.77012   0.79089    0.000
 5004.00    0.78198   0.78795    0.000
 5005.00    0.80340   0.78668    0.000
 5006.00    0.81254   0.78450    0.000
 5007.00    0.81722   0.78150    0.000
 5008.00    0.81434   0.77950    0.000
 5009.00    0.80915   0.77753    0.000
 5010.00    0.81301   0.77710    0.000
 5011.00    0.81918   0.77645    0.000
 5012.00    0.79462   0.77481    0.000
 5013.00    0.76369   0.77500    0.000
 5014.00    0.77069   0.77435    0.000
 5015.00    0.78390   0.77462    0.000
 5016.00    0.77305   0.77601    0.000
 5017.00    0.75925   0.77675    0.000
 5018.00    0.74373   0.77936    0.000
 5019.00    0.72807   0.78083    0.000
 5020.00    0.74291   0.78279    0.000
 5021.00    0.75925   0.78655    0.000
 5022.00    0.77613   0.78909    0.000
 5023.00    0.79279   0.79245    0.000
 5024.00    0.79573   0.79458    0.000
 5025.00    0.79785   0.79684    0.000
 5026.00    0.78363   0.80093    0.000
 5027.00    0.77121   0.80266    0.000
 5028.00    0.77975   0.80436    0.000
 5029.00    0.78778   0.80553    0.093
 5030.00    0.79176   0.80589    0.093
 5031.00    0.79707   0.80710    0.092
 5032.00    0.81046   0.80605    0.093
 5033.00    0.82093   0.80410    0.093
 5034.00    0.81747   0.80375    0.092
 5035.00    0.81246   0.80285    0.092
 5036.00    0.80139   0.80111    0.093
 5037.00    0.79453   0.79872    0.093
 5038.00    0.80129   0.79572    0.093
 5039.00    0.79274   0.79601    0.093
 5040.00    0.74218   0.79697    0.093
 5041.00    0.71990   0.79616    0.093
 5042.00    0.76412   0.79627    0.092
 5043.00    0.79482   0.79611    0.091
 5044.00    0.79800   0.79795    0.091
 5045.00    0.80035   0.80081    0.091
 5046.00    0.80123   0.80201    0.091
 5047.00    0.80722   0.80438    0.091
 5048.00    0.82112   0.80650    0.091
 5049.00    0.82208   0.80843    0.090
 5050.00    0.80544   0.81084    0.091
 5051.00    0.80214   0.81279    0.090
 5052.00    0.81478   0.81544    0.090
 5053.00    0.81402   0.81779    0.089
 5054.00    0.79911   0.81928    0.090
 5055.00    0.79677   0.82146    0.090
 5056.00    0.80613   0.82275    0.088
 5057.00    0.82864   0.82366    0.089
 5058.00    0.86191   0.82488    0.091
 5059.00    0.85550   0.82465    0.091
 5060.00    0.82041   0.82476    0.090
 5061.00    0.80352   0.82333    0.090
 5062.00    0.79818   0.82145    0.090
 5063.00    0.79447   0.82107    0.090
 5064.00    0.79167   0.81904    0.090
 5065.00    0.79717   0.81691    0.090
 5066.00    0.80665   0.81412    0.091
 5067.00    0.81032   0.81137    0.090
 5068.00    0.81157   0.81043    0.090
 5069.00    0.81130   0.80803    0.090
 5070.00    0.81050   0.80570    0.092
 5071.00    0.80950   0.80351    0.092
 5072.00    0.80844   0.80142    0.093
 5073.00    0.79769   0.80012    0.092
 5074.00    0.78452   0.79794    0.091
 5075.00    0.77349   0.79643    0.091
 5076.00    0.76290   0.79459    0.091
 5077.00    0.75828   0.79285    0.091
 5078.00    0.75461   0.79242    0.091
 5079.00    0.77108   0.79227    0.091
 5080.00    0.78994   0.79235    0.091
 5081.00    0.77545   0.79184    0.089
 5082.00    0.75828   0.79228    0.088
 5083.00    0.75925   0.79423    0.088
 5084.00    0.76104   0.79635    0.089
 5085.00    0.75304   0.79806    0.089
 5086.00    0.74564   0.79956    0.088
 5087.00    0.77405   0.80155    0.088
 5088.00    0.80013   0.80350    0.089
 5089.00    0.78308   0.80510    0.088
 5090.00    0.76778   0.80618    0.088
 5091.00    0.77197   0.80650    0.089
 5092.00    0.77734   0.80669    0.090
 5093.00    0.79203   0.80642    0.090
 5094.00    0.80023   0.80563    0.090
 5095.00    0.77027   0.80462    0.091
 5096.00    0.74629   0.80258    0.091
 5097.00    0.75024   0.80113    0.091
 5098.00    0.75533   0.80019    0.091
 5099.00    0.76473   0.79845    0.090
 5100.00    0.77118   0.79675    0.090
 5101.00    0.76827   0.79483    0.088
 5102.00    0.75991   0.79379    0.087
 5103.00    0.73687   0.79418    0.087
 5104.00    0.72493   0.79358    0.087
 5105.00    0.73862   0.79274    0.089
 5106.00    0.75208   0.79295    0.090
 5107.00    0.76505   0.79301    0.090
 5108.00    0.77296   0.79448    0.090
 5109.00    0.77204   0.79584    0.090
 5110.00    0.76609   0.79599    0.089
 5111.00    0.75244   0.79758    0.089
 5112.00    0.75023   0.79829    0.089
 5113.00    0.76333   0.79912    0.089
 5114.00    0.78059   0.80073    0.090
 5115.00    0.80275   0.80010    0.090
 5116.00    0.81727   0.79981    0.091
 5117.00    0.82383   0.79926    0.093
 5118.00    0.82040   0.79752    0.093
 5119.00    0.80780   0.79664    0.091
 5120.00    0.78784   0.79401    0.090
 5121.00    0.76192   0.79108    0.089
 5122.00    0.75962   0.78939    0.088
 5123.00    0.77414   0.78691    0.088
 5124.00    0.76462   0.78497    0.088
 5125.00    0.74009   0.78274    0.088
 5126.00    0.73469   0.78052    0.088
 5127.00    0.73973   0.78047    0.088
 5128.00    0.72930   0.78028    0.088
 5129.00    0.71154   0.77949    0.088
 5130.00    0.72562   0.77921    0.088
 5131.00    0.75273   0.77855    0.088
 5132.00    0.77944   0.78000    0.088
 5133.00    0.80602   0.78104    0.089
 5134.00    0.79795   0.77960    0.089
 5135.00    0.77967   0.77936    0.088
 5136.00    0.77013   0.77846    0.089
 5137.00    0.76274   0.77881    0.090
 5138.00    0.76447   0.77916    0.089
 5139.00    0.76800   0.77598    0.089
 5140.00    0.77342   0.77462    0.088
 5141.00    0.77914   0.77413    0.088
 5142.00    0.78005   0.77327    0.088
 5143.00    0.78040   0.77301    0.088
 5144.00    0.77931   0.77065    0.088
 5145.00    0.77812   0.76951    0.089
 5146.00    0.75725   0.77057    0.089
 5147.00    0.73557   0.77058    0.089
 5148.00    0.71816   0.77060    0.088
 5149.00    0.70186   0.77070    0.088
 5150.00    0.73123   0.77122    0.088
 5151.00    0.75983   0.77275    0.089
 5152.00    0.77492   0.77390    0.089
 5153.00    0.78663   0.77426    0.089
 5154.00    0.76238   0.77422    0.089
 5155.00    0.74653   0.77447    0.089
 5156.00    0.79382   0.77364    0.091
 5157.00    0.83289   0.77234    0.092
 5158.00    0.82482   0.76979    0.092
 5159.00    0.81514   0.76466    0.092
 5160.00    0.79814   0.76026    0.091
 5161.00    0.77946   0.75527    0.090
 5162.00    0.75453   0.74936    0.090
 5163.00    0.73692   0.74231    0.090
 5164.00    0.74217   0.73243    0.090
 5165.00    0.73788   0.72494    0.090
 5166.00    0.70835   0.72018    0.089
 5167.00    0.68266   0.71534    0.089
 5168.00    0.66571   0.70950    0.089
 5169.00    0.65295   0.70229    0.089
 5170.00    0.64841   0.69859    0.088
 5171.00    0.65350   0.69952    0.088
 5172.00    0.67510   0.70077    0.089
 5173.00    0.68966   0.70030    0.090
 5174.00    0.69366   0.69902    0.089
 5175.00    0.69921   0.69950    0.088
 5176.00    0.70681   0.70318    0.089
 5177.00    0.71570   0.70751    0.089
 5178.00    0.72609   0.70954    0.088
 5179.00    0.72294   0.71062    0.088
 5180.00    0.70589   0.71114    0.088
 5181.00    0.68586   0.71365    0.087
 5182.00    0.66313   0.71897    0.086
 5183.00    0.65833   0.72186    0.085
 5184.00    0.66784   0.72357    0.087
 5185.00    0.68211   0.72508    0.087
 5186.00    0.69975   0.72808    0.086
 5187.00    0.69971   0.73426    0.086
 5188.00    0.68880   0.73775    0.086
 5189.00    0.70054   0.73940    0.086
 5190.00    0.72446   0.74259    0.000
 5191.00    0.74977   0.74651    0.000
 5192.00    0.77573   0.75045    0.000
 5193.00    0.76252   0.75280    0.000
 5194.00    0.73355   0.75375    0.000
 5195.00    0.73375   0.75578    0.000
 5196.00    0.74395   0.75800    0.000
 5197.00    0.74857   0.75804    0.000
 5198.00    0.75157   0.75784    0.000
 5199.00    0.76376   0.75751    0.000
 5200.00    0.77814   0.75679    0.000
 5201.00    0.77108   0.75620    0.000
 5202.00    0.75990   0.75382    0.000
 5203.00    0.74844   0.75242    0.000
 5204.00    0.73693   0.75256    0.000
 5205.00    0.72753   0.75135    0.000
 5206.00    0.71836   0.75114    0.000
 5207.00    0.70772   0.75107    0.000
 5208.00    0.69699   0.75192    0.000
 5209.00    0.71104   0.75501    0.000
 5210.00    0.72602   0.75696    0.000
 5211.00    0.73710   0.75958    0.088
 5212.00    0.74805   0.76239    0.088
 5213.00    0.75470   0.76499    0.087
 5214.00    0.76145   0.76891    0.085
 5215.00    0.76983   0.77202    0.087
 5216.00    0.77837   0.77438    0.089
 5217.00    0.78856   0.77594    0.089
 5218.00    0.79490   0.77687    0.089
 5219.00    0.77332   0.77778    0.089
 5220.00    0.75668   0.77875    0.089
 5221.00    0.76756   0.77872    0.088
 5222.00    0.77440   0.77780    0.087
 5223.00    0.76324   0.77730    0.088
 5224.00    0.75435   0.77601    0.088
 5225.00    0.75376   0.77672    0.088
 5226.00    0.75529   0.77778    0.088
 5227.00    0.76330   0.77724    0.088
 5228.00    0.76492   0.77902    0.088
 5229.00    0.74991   0.77978    0.087
 5230.00    0.73776   0.78156    0.087
 5231.00    0.73198   0.78534    0.087
 5232.00    0.74376   0.78703    0.087
 5233.00    0.78957   0.79068    0.088
 5234.00    0.81114   0.79377    0.088
 5235.00    0.79174   0.79534    0.088
 5236.00    0.78378   0.79863    0.088
 5237.00    0.79277   0.80065    0.089
 5238.00    0.79913   0.80257    0.089
 5239.00    0.80205   0.80378    0.088
 5240.00    0.80700   0.80363    0.088
 5241.00    0.81429   0.80437    0.087
 5242.00    0.82039   0.80438    0.087
 5243.00    0.82529   0.80307    0.087
 5244.00    0.80572   0.80083    0.086
 5245.00    0.76433   0.79979    0.086
 5246.00    0.75721   0.79944    0.086
 5247.00    0.77704   0.79701    0.087
 5248.00    0.79336   0.79502    0.087
 5249.00    0.80725   0.79327    0.088
 5250.00    0.78360   0.79265    0.087
 5251.00    0.73718   0.79242    0.086
 5252.00    0.74092   0.78911    0.085
 5253.00    0.77119   0.78773    0.086
 5254.00    0.76843   0.78736    0.086
 5255.00    0.75050   0.78536    0.085
 5256.00    0.74726   0.78339    0.085
 5257.00    0.74981   0.77908    0.086
 5258.00    0.76344   0.77527    0.086
 5259.00    0.78081   0.77271    0.088
 5260.00    0.76652   0.76805    0.088
 5261.00    0.74328   0.76304    0.088
 5262.00    0.73390   0.75775    0.087
 5263.00    0.72776   0.75280    0.087
 5264.00    0.71073   0.75033    0.088
 5265.00    0.69166   0.74777    0.088
 5266.00    0.67481   0.74366    0.088
 5267.00    0.65829   0.74101    0.088
 5268.00    0.67525   0.74196    0.089
 5269.00    0.69573   0.74490    0.089
 5270.00    0.69984   0.74737    0.089
 5271.00    0.70284   0.74935    0.088
 5272.00    0.71949   0.75182    0.089
 5273.00    0.73661   0.75763    0.089
 5274.00    0.76175   0.76505    0.090
 5275.00    0.78614   0.77007    0.090
 5276.00    0.78632   0.77524    0.090
 5277.00    0.78611   0.78039    0.089
 5278.00    0.77999   0.78561    0.088
 5279.00    0.77479   0.79227    0.087
 5280.00    0.77865   0.79661    0.088
 5281.00    0.78286   0.80009    0.088
 5282.00    0.78954   0.80500    0.088
 5283.00    0.79491   0.80908    0.089
 5284.00    0.79310   0.81249    0.089
 5285.00    0.78979   0.81449    0.088
 5286.00    0.77990   0.81582    0.087
 5287.00    0.77745   0.81857    0.087
 5288.00    0.80160   0.82062    0.088
 5289.00    0.81661   0.82054    0.089
 5290.00    0.80416   0.81944    0.088
 5291.00    0.79414   0.81913    0.088
 5292.00    0.79036   0.81920    0.087
 5293.00    0.79093   0.81820    0.087
 5294.00    0.80107   0.81595    0.087
 5295.00    0.81136   0.81374    0.087
 5296.00    0.82191   0.81407    0.088
 5297.00    0.81908   0.81465    0.088
 5298.00    0.79393   0.81361    0.087
 5299.00    0.77966   0.81314    0.087
 5300.00    0.78126   0.81392    0.087
 5301.00    0.78879   0.81667    0.087
 5302.00    0.80394   0.81944    0.086
 5303.00    0.81848   0.82056    0.086
 5304.00    0.83232   0.82228    0.086
 5305.00    0.83577   0.82492    0.086
 5306.00    0.82883   0.82792    0.086
 5307.00    0.83029   0.83003    0.086
 5308.00    0.83913   0.83074    0.085
 5309.00    0.82847   0.83149    0.084
 5310.00    0.80270   0.83201    0.084
 5311.00    0.80262   0.83211    0.085
 5312.00    0.82004   0.83130    0.085
 5313.00    0.81474   0.82906    0.085
 5314.00    0.79588   0.82721    0.084
 5315.00    0.78679   0.82519    0.083
 5316.00    0.78278   0.82165    0.083
 5317.00    0.79472   0.81789    0.083
 5318.00    0.81385   0.81400    0.084
 5319.00    0.82635   0.81029    0.084
 5320.00    0.83626   0.80635    0.084
 5321.00    0.81199   0.80108    0.084
 5322.00    0.77642   0.79703    0.084
 5323.00    0.76773   0.79479    0.084
 5324.00    0.76648   0.79131    0.084
 5325.00    0.76119   0.78670    0.084
 5326.00    0.75497   0.78440    0.083
 5327.00    0.74926   0.78459    0.084
 5328.00    0.74364   0.78530    0.085
 5329.00    0.76028   0.78432    0.085
 5330.00    0.78003   0.78290    0.085
 5331.00    0.79006   0.78536    0.085
 5332.00    0.79911   0.78857    0.086
 5333.00    0.79526   0.79007    0.085
 5334.00    0.79058   0.79113    0.084
 5335.00    0.80455   0.79288    0.084
 5336.00    0.81902   0.79626    0.084
 5337.00    0.81312   0.79720    0.084
 5338.00    0.80698   0.79747    0.085
 5339.00    0.79378   0.79979    0.084
 5340.00    0.78234   0.80143    0.084
 5341.00    0.79612   0.80343    0.084
 5342.00    0.80932   0.80333    0.084
 5343.00    0.81719   0.80369    0.085
 5344.00    0.82254   0.80759    0.085
 5345.00    0.81074   0.80920    0.085
 5346.00    0.80144   0.81065    0.084
 5347.00    0.80536   0.81332    0.084
 5348.00    0.80556   0.81593    0.084
 5349.00    0.78998   0.82015    0.083
 5350.00    0.77957   0.82235    0.082
 5351.00    0.78727   0.82423    0.082
 5352.00    0.79739   0.82830    0.083
 5353.00    0.81464   0.83090    0.083
 5354.00    0.82616   0.83276    0.084
 5355.00    0.82328   0.83400    0.083
 5356.00    0.82541   0.83447    0.082
 5357.00    0.83841   0.83565    0.082
 5358.00    0.84690   0.83484    0.082
 5359.00    0.84692   0.83251    0.082
 5360.00    0.83898   0.83114    0.082
 5361.00    0.81800   0.82888    0.082
 5362.00    0.80057   0.82606    0.082
 5363.00    0.78828   0.82310    0.082
 5364.00    0.78359   0.81936    0.082
 5365.00    0.78851   0.81688    0.081
 5366.00    0.77689   0.81446    0.081
 5367.00    0.74683   0.81146    0.081
 5368.00    0.73139   0.80941   -2.000
 5369.00    0.73032   0.80837   -2.000
 5370.00    0.74689   0.80864   -2.000
 5371.00    0.77876   0.80873   -2.000
 5372.00    0.77414   0.80872   -2.000
 5373.00    0.74164   0.80941   -2.000
 5374.00    0.73960   0.81062   -2.000
 5375.00    0.75802   0.81286   -2.000
 5376.00    0.78530   0.81450   -2.000
 5377.00    0.81778   0.81543   -2.000
 5378.00    0.82972   0.81674   -2.000
 5379.00    0.83112   0.81751   -2.000
 5380.00    0.81588   0.81757   -2.000
 5381.00    0.79325   0.81764   -2.000
 5382.00    0.79728   0.81716   -2.000
 5383.00    0.81151   0.81597    0.082
 5384.00    0.80754   0.81493    0.082
 5385.00    0.79768   0.81268    0.082
 5386.00    0.80804   0.80964    0.083
 5387.00    0.82388   0.80769    0.083
 5388.00    0.80447   0.80486    0.082
 5389.00    0.77721   0.80177    0.081
 5390.00    0.77187   0.79903    0.081
 5391.00    0.77042   0.79526    0.082
 5392.00    0.76718   0.79288    0.081
 5393.00    0.76371   0.79009    0.081
 5394.00    0.77411   0.78563    0.081
 5395.00    0.78584   0.78373    0.081
 5396.00    0.77866   0.78230    0.081
 5397.00    0.77034   0.77981    0.081
 5398.00    0.75858   0.77734    0.080
 5399.00    0.74685   0.77446    0.080
 5400.00    0.75437   0.77355    0.081
 5401.00    0.76170   0.77315    0.082
 5402.00    0.76390   0.77089    0.082
 5403.00    0.76563   0.76968    0.082
 5404.00    0.76102   0.77041    0.081
 5405.00    0.75604   0.77150    0.080
 5406.00    0.74767   0.77157    0.080
 5407.00    0.74049   0.77153    0.081
 5408.00    0.74109   0.77392    0.080
 5409.00    0.74299   0.77721    0.080
 5410.00    0.75158   0.78013    0.080
 5411.00    0.76021   0.78295    0.080
 5412.00    0.76895   0.78559    0.080
 5413.00    0.77632   0.78972    0.080
 5414.00    0.77895   0.79367    0.080
 5415.00    0.78180   0.79599    0.080
 5416.00    0.78525   0.79937    0.080
 5417.00    0.78814   0.80194    0.079
 5418.00    0.78965   0.80304    0.079
 5419.00    0.78795   0.80556    0.078
 5420.00    0.77943   0.80635    0.079
 5421.00    0.77302   0.80577    0.079
 5422.00    0.77054   0.80644    0.079
 5423.00    0.76895   0.80497    0.079
 5424.00    0.76881   0.80452    0.078
 5425.00    0.76934   0.80459    0.078
 5426.00    0.77082   0.80056    0.079
 5427.00    0.76872   0.79964    0.079
 5428.00    0.76216   0.80023    0.079
 5429.00    0.76244   0.79813    0.079
 5430.00    0.77022   0.79781    0.079
 5431.00    0.76701   0.79634    0.079
 5432.00    0.75314   0.79607    0.079
 5433.00    0.74995   0.79850    0.079
 5434.00    0.75590   0.79795    0.079
 5435.00    0.76634   0.79827    0.079
 5436.00    0.78017   0.80030    0.078
 5437.00    0.78310   0.80154    0.079
 5438.00    0.77882   0.80269    0.079
 5439.00    0.79080   0.80307    0.079
 5440.00    0.81221   0.80344    0.079
 5441.00    0.82418   0.80387    0.079
 5442.00    0.83140   0.80397    0.079
 5443.00    0.82312   0.80274    0.080
 5444.00    0.80808   0.80064    0.080
 5445.00    0.80322   0.80009    0.080
 5446.00    0.80219   0.79860    0.080
 5447.00    0.79405   0.79638    0.080
 5448.00    0.78365   0.79444    0.080
 5449.00    0.78758   0.79127    0.079
 5450.00    0.79533   0.79023    0.078
 5451.00    0.79846   0.78936    0.078
 5452.00    0.80059   0.78630    0.078
 5453.00    0.78000   0.78573    0.078
 5454.00    0.75548   0.78554    0.078
 5455.00    0.76277   0.78460    0.078
 5456.00    0.77424   0.78461    0.079
 5457.00    0.77331   0.78300    0.078
 5458.00    0.77125   0.78323    0.078
 5459.00    0.77858   0.78465    0.078
 5460.00    0.78644   0.78348    0.078
 5461.00    0.79320   0.78395    0.077
 5462.00    0.80001   0.78462    0.077
 5463.00    0.81486   0.78409    0.078
 5464.00    0.82849   0.78430    0.079
 5465.00    0.81363   0.78322    0.079
 5466.00    0.80008   0.78292    0.079
 5467.00    0.80352   0.78262    0.078
 5468.00    0.80505   0.78107    0.078
 5469.00    0.79002   0.78097    0.077
 5470.00    0.77877   0.77932    0.076
 5471.00    0.79178   0.77756    0.076
 5472.00    0.80029   0.77747    0.076
 5473.00    0.78630   0.77586    0.077
 5474.00    0.77712   0.77502    0.078
 5475.00    0.78750   0.77432    0.078
 5476.00    0.79026   0.77370    0.078
 5477.00    0.76739   0.77485    0.077
 5478.00    0.75024   0.77400   -2.000
 5479.00    0.74937   0.77384   -2.000
 5480.00    0.75247   0.77618   -2.000
 5481.00    0.76525   0.77691   -2.000
 5482.00    0.77851   0.77782   -2.000
 5483.00    0.79278   0.77940   -2.000
 5484.00    0.80129   0.78034   -2.000
 5485.00    0.79933   0.78231   -2.000
 5486.00    0.77364   0.78372   -2.000
 5487.00    0.71019   0.78412   -2.000
 5488.00    0.67205   0.78583   -2.000
 5489.00    0.66929   0.78700   -2.000
 5490.00    0.69459   0.78714   -2.000
 5491.00    0.75441   0.78765   -2.000
 5492.00    0.80205   0.78757   -2.000
 5493.00    0.83652   0.78806   -2.000
 5494.00    0.85267   0.78829   -2.000
 5495.00    0.85132   0.78681   -2.000
 5496.00    0.82487   0.78670   -2.000
 5497.00    0.77728   0.78674   -2.000
 5498.00    0.75990   0.78523   -2.000
 5499.00    0.76494   0.78417   -2.000
 5500.00    0.77071   0.78283   -2.000
 5501.00    0.77696   0.78226   -2.000
 5502.00    0.77360   0.78195    0.114
 5503.00    0.76476   0.77937    0.457
 5504.00    0.75729   0.77875   -1.000
 5505.00    0.75051   0.77914   -1.000
 5506.00    0.74619   0.77716   -1.000
 5507.00    0.74294   0.77697   -1.000
 5508.00    0.74587   0.77677   -1.000
 5509.00    0.75108   0.77605   -1.000
 5510.00    0.75332   0.77750    0.191
 5511.00    0.75464   0.77717    0.083
 5512.00    0.75056   0.77772    0.074
 5513.00    0.74507   0.78003    0.073
 5514.00    0.74014   0.77996    0.074
 5515.00    0.73533   0.78148    0.075
 5516.00    0.74070   0.78354    0.075
 5517.00    0.74778   0.78397    0.074
 5518.00    0.74576   0.78577    0.074
 5519.00    0.74259   0.78680    0.075
 5520.00    0.75155   0.78769    0.075
 5521.00    0.76158   0.78905    0.076
 5522.00    0.77888   0.78852    0.076
 5523.00    0.79656   0.78910    0.076
 5524.00    0.79572   0.79001    0.075
 5525.00    0.79423   0.78912    0.074
 5526.00    0.76963   0.78909    0.074
 5527.00    0.74623   0.78945    0.075
 5528.00    0.74878   0.78933    0.075
 5529.00    0.75125   0.78909    0.076
 5530.00    0.75289   0.78900    0.075
 5531.00    0.75416   0.78971    0.074
 5532.00    0.75231   0.79006    0.074
 5533.00    0.75250   0.79051    0.074
 5534.00    0.76537   0.79151    0.074
 5535.00    0.77558   0.79263    0.075
 5536.00    0.77277   0.79395    0.076
 5537.00    0.76957   0.79436    0.076
 5538.00    0.76489   0.79566    0.075
 5539.00    0.76538   0.79764    0.074
 5540.00    0.78300   0.79761    0.076
 5541.00    0.79861   0.79877    0.077
 5542.00    0.80862   0.80090    0.077
 5543.00    0.81007   0.80113    0.077
 5544.00    0.79108   0.80189    0.077
 5545.00    0.77749   0.80287    0.076
 5546.00    0.77500   0.80315    0.076
 5547.00    0.77477   0.80381    0.075
 5548.00    0.77857   0.80328    0.074
 5549.00    0.78134   0.80291    0.073
 5550.00    0.78249   0.80372    0.073
 5551.00    0.79362   0.80251    0.074
 5552.00    0.81849   0.80121    0.074
 5553.00    0.82281   0.80132    0.073
 5554.00    0.80222   0.79989    0.072
 5555.00    0.78949   0.79828    0.072
 5556.00    0.78517   0.79702    0.074
 5557.00    0.78023   0.79521    0.074
 5558.00    0.77472   0.79415    0.073
 5559.00    0.77435   0.79227    0.073
 5560.00    0.77827   0.79005    0.072
 5561.00    0.77534   0.78937    0.073
 5562.00    0.76740   0.78806    0.074
 5563.00    0.76105   0.78600    0.074
 5564.00    0.75572   0.78489    0.073
 5565.00    0.74802   0.78469    0.073
 5566.00    0.73899   0.78357    0.072
 5567.00    0.73946   0.78197    0.072
 5568.00    0.74459   0.78256    0.072
 5569.00    0.74745   0.78246    0.072
 5570.00    0.74936   0.78137    0.073
 5571.00    0.75554   0.78212    0.073
 5572.00    0.76327   0.78176    0.072
 5573.00    0.76173   0.78153    0.072
 5574.00    0.75734   0.78227    0.073
 5575.00    0.75846   0.78064    0.073
 5576.00    0.76098   0.78060    0.073
 5577.00    0.76837   0.78098    0.074
 5578.00    0.77677   0.77811    0.074
 5579.00    0.78190   0.77754    0.074
 5580.00    0.78649   0.77676    0.074
 5581.00    0.77692   0.77312    0.073
 5582.00    0.76562   0.77216    0.072
 5583.00    0.77301   0.77020    0.073
 5584.00    0.78197   0.76685    0.073
 5585.00    0.76297   0.76605    0.074
 5586.00    0.74262   0.76367    0.074
 5587.00    0.73558   0.76160    0.074
 5588.00    0.72865   0.76085    0.073
 5589.00    0.71604   0.75875    0.072
 5590.00    0.70434   0.75907    0.071
 5591.00    0.71081   0.75886    0.072
 5592.00    0.71776   0.75716    0.072
 5593.00    0.73026   0.75873    0.072
 5594.00    0.74182   0.75940    0.072
 5595.00    0.74585   0.75945    0.073
 5596.00    0.74994   0.76124    0.074
 5597.00    0.75441   0.76188    0.075
 5598.00    0.76007   0.76388    0.075
 5599.00    0.77137   0.76597    0.075
 5600.00    0.77967   0.76646    0.074
 5601.00    0.77627   0.76916    0.074
 5602.00    0.77206   0.77149    0.074
 5603.00    0.76526   0.77211    0.073
 5604.00    0.76305   0.77409    0.073
 5605.00    0.77343   0.77593    0.073
 5606.00    0.77848   0.77684    0.073
 5607.00    0.77102   0.77823    0.072
 5608.00    0.76488   0.77887    0.072
 5609.00    0.76141   0.77822    0.072
 5610.00    0.76432   0.77846    0.072
 5611.00    0.77851   0.77879    0.072
 5612.00    0.78375   0.77729    0.072
 5613.00    0.77516   0.77622    0.072
 5614.00    0.76695   0.77534    0.071
 5615.00    0.75926   0.77383    0.071
 5616.00    0.75332   0.77308    0.071
 5617.00    0.74947   0.77163    0.071
 5618.00    0.74399   0.76998    0.071
 5619.00    0.73679   0.76974    0.070
 5620.00    0.73871   0.76897    0.070
 5621.00    0.74910   0.76801    0.071
 5622.00    0.75635   0.76849    0.071
 5623.00    0.76102   0.76908    0.071
 5624.00    0.75894   0.76901    0.071
 5625.00    0.75199   0.76944    0.071
 5626.00    0.74798   0.77006    0.071
 5627.00    0.74582   0.77048    0.070
 5628.00    0.75048   0.77133    0.070
 5629.00    0.75890   0.77144    0.071
 5630.00    0.76418   0.77125    0.071
 5631.00    0.76795   0.77205    0.070
 5632.00    0.77518   0.77212    0.071
 5633.00    0.78383   0.77184    0.071
 5634.00    0.77698   0.77198    0.070
 5635.00    0.76460   0.77120    0.069
 5636.00    0.75622   0.77095    0.069
 5637.00    0.74904   0.77085    0.070
 5638.00    0.75230   0.76992    0.070
 5639.00    0.75817   0.76990    0.071
 5640.00    0.74918   0.76968    0.071
 5641.00    0.73719   0.76928    0.070
 5642.00    0.74504   0.76965    0.070
 5643.00    0.75602   0.76922    0.071
 5644.00    0.75025   0.76946    0.070
 5645.00    0.74250   0.77021    0.069
 5646.00    0.73747   0.76952    0.069
 5647.00    0.73265   0.77010    0.070
 5648.00    0.74464   0.77044    0.070
 5649.00    0.75738   0.76900    0.071
 5650.00    0.75972   0.76969    0.070
 5651.00    0.76191   0.76987    0.070
 5652.00    0.76254   0.76744    0.070
 5653.00    0.76351   0.76712    0.070
 5654.00    0.77080   0.76746    0.070
 5655.00    0.77632   0.76581    0.070
 5656.00    0.76232   0.76483    0.069
 5657.00    0.74798   0.76433    0.069
 5658.00    0.73102   0.76402    0.070
 5659.00    0.71681   0.76401    0.070
 5660.00    0.71880   0.76300    0.070
 5661.00    0.72147   0.76324    0.070
 5662.00    0.72730   0.76480    0.069
 5663.00    0.73199   0.76461    0.068
 5664.00    0.73238   0.76496    0.068
 5665.00    0.73367   0.76738    0.069
 5666.00    0.73780   0.76885    0.069
 5667.00    0.74033   0.76987    0.070
 5668.00    0.73853   0.77178    0.069
 5669.00    0.73990   0.77332    0.069
 5670.00    0.74860   0.77484    0.069
 5671.00    0.75436   0.77675    0.069
 5672.00    0.75426   0.77770    0.068
 5673.00    0.75947   0.77827    0.068
 5674.00    0.77390   0.77954    0.069
 5675.00    0.78318   0.78052    0.070
 5676.00    0.78463   0.78033    0.071
 5677.00    0.77945   0.78017    0.071
 5678.00    0.76541   0.78080    0.070
 5679.00    0.75380   0.78069    0.070
 5680.00    0.74504   0.77973    0.070
 5681.00    0.73973   0.77921    0.070
 5682.00    0.73800   0.77911    0.069
 5683.00    0.73812   0.77880    0.069
 5684.00    0.73993   0.77808    0.069
 5685.00    0.74034   0.77762    0.069
 5686.00    0.73963   0.77797    0.069
 5687.00    0.73846   0.77773    0.068
 5688.00    0.73696   0.77701    0.068
 5689.00    0.74345   0.77701    0.068
 5690.00    0.75493   0.77730    0.069
 5691.00    0.76059   0.77690    0.069
 5692.00    0.76309   0.77579    0.069
 5693.00    0.76726   0.77535    0.069
 5694.00    0.77222   0.77490    0.069
 5695.00    0.77028   0.77356    0.070
 5696.00    0.76552   0.77229    0.071
 5697.00    0.76315   0.77075    0.071
 5698.00    0.76162   0.76940    0.071
 5699.00    0.75072   0.76795    0.071
 5700.00    0.73706   0.76500    0.071
 5701.00    0.73905   0.76389    0.071
 5702.00    0.74485   0.76298    0.071
 5703.00    0.74857   0.75971    0.070
 5704.00    0.75189   0.75949    0.070
 5705.00    0.74350   0.75937    0.069
 5706.00    0.73330   0.75720    0.068
 5707.00    0.72266   0.75837    0.068
 5708.00    0.71197   0.75889    0.068
 5709.00    0.71062   0.75884    0.068
 5710.00    0.70998   0.76165    0.068
 5711.00    0.71835   0.76241    0.068
 5712.00    0.72709   0.76409    0.067
 5713.00    0.73142   0.76805    0.067
 5714.00    0.73597   0.76920    0.067
 5715.00    0.75084   0.77209    0.068
 5716.00    0.76476   0.77630    0.068
 5717.00    0.76256   0.77749    0.068
 5718.00    0.76008   0.78031    0.068
 5719.00    0.75464   0.78379    0.067
 5720.00    0.75251   0.78489    0.067
 5721.00    0.77517   0.78680    0.068
 5722.00    0.79615   0.78866    0.069
 5723.00    0.80749   0.78940    0.069
 5724.00    0.81496   0.79082    0.069
 5725.00    0.80482   0.79137    0.069
 5726.00    0.79481   0.79138    0.068
 5727.00    0.78525   0.79238    0.068
 5728.00    0.77788   0.79250    0.068
 5729.00    0.77733   0.79219    0.069
 5730.00    0.77360   0.79260    0.069
 5731.00    0.76147   0.79262    0.068
 5732.00    0.75296   0.79247    0.068
 5733.00    0.75268   0.79237    0.068
 5734.00    0.75345   0.79248    0.068
 5735.00    0.75629   0.79300    0.068
 5736.00    0.76161   0.79252    0.068
 5737.00    0.77117   0.79226    0.068
 5738.00    0.77398   0.79298    0.068
 5739.00    0.76666   0.79246    0.068
 5740.00    0.75943   0.79227    0.000
 5741.00    0.75231   0.79263    0.000
 5742.00    0.75566   0.79166    0.000
 5743.00    0.77117   0.79153    0.000
 5744.00    0.78452   0.79160    0.000
 5745.00    0.79566   0.79035    0.000
 5746.00    0.79834   0.79027    0.000
 5747.00    0.79338   0.79004    0.000
 5748.00    0.78967   0.78865    0.000
 5749.00    0.78697   0.78868    0.000
 5750.00    0.79039   0.78828    0.000
 5751.00    0.79811   0.78718    0.000
 5752.00    0.79699   0.78733    0.000
 5753.00    0.79043   0.78644    0.000
 5754.00    0.78748   0.78553    0.000
 5755.00    0.78648   0.78638    0.000
 5756.00    0.78440   0.78578    0.000
 5757.00    0.78183   0.78503    0.000
 5758.00    0.78017   0.78611    0.000
 5759.00    0.77888   0.78581    0.000
 5760.00    0.78318   0.78558    0.000
 5761.00    0.78939   0.78695    0.000
 5762.00    0.79754   0.78679    0.000
 5763.00    0.80624   0.78683    0.000
 5764.00    0.81047   0.78807    0.000
 5765.00    0.81364   0.78767    0.000
 5766.00    0.80688   0.78766    0.000
 5767.00    0.79823   0.78851    0.000
 5768.00    0.80431   0.78753    0.000
 5769.00    0.81260   0.78717    0.000
 5770.00    0.80643   0.78746    0.000
 5771.00    0.79870   0.78568    0.000
 5772.00    0.79637   0.78427    0.000
 5773.00    0.79443   0.78349    0.000
 5774.00    0.78741   0.78130    0.000
 5775.00    0.78019   0.77934    0.000
 5776.00    0.77680   0.77738    0.000
 5777.00    0.77375   0.77513    0.000
 5778.00    0.78251   0.77356    0.000
 5779.00    0.78994   0.77129    0.000
 5780.00    0.77612   0.76965    0.000
 5781.00    0.76278   0.76886    0.000
 5782.00    0.75418   0.76717    0.000
 5783.00    0.74657   0.76692    0.000
 5784.00    0.74613   0.76720    0.000
 5785.00    0.74723   0.76683    0.000
 5786.00    0.75687   0.76808    0.000
 5787.00    0.76499   0.76927    0.000
 5788.00    0.76630   0.77037    0.000
 5789.00    0.76652   0.77275    0.000
 5790.00    0.76275   0.77447    0.000
 5791.00    0.75956   0.77669   -2.000
 5792.00    0.75812   0.77952   -2.000
 5793.00    0.75505   0.78136   -2.000
 5794.00    0.74776   0.78381   -2.000
 5795.00    0.74328   0.78607   -2.000
 5796.00    0.74509   0.78756   -2.000
 5797.00    0.74801   0.78960   -2.000
 5798.00    0.75306   0.79125   -2.000
 5799.00    0.75691   0.79234   -2.000
 5800.00    0.75873   0.79327   -2.000
 5801.00    0.75941   0.79437   -2.000
 5802.00    0.75837   0.79517   -2.000
 5803.00    0.76337   0.79487   -2.000
 5804.00    0.77620   0.79543   -2.000
 5805.00    0.78383   0.79614   -2.000
 5806.00    0.78550   0.79516   -2.000
 5807.00    0.78750   0.79513   -2.000
 5808.00    0.78984   0.79569   -2.000
 5809.00    0.78768   0.79492   -2.000
 5810.00    0.78151   0.79470   -2.000
 5811.00    0.77533   0.79494    0.000
 5812.00    0.76914   0.79464    0.000
 5813.00    0.76366   0.79463    0.000
 5814.00    0.75866   0.79478    0.000
 5815.00    0.75699   0.79496    0.000
 5816.00    0.75734   0.79539    0.000
 5817.00    0.76084   0.79573    0.000
 5818.00    0.76601   0.79611    0.000
 5819.00    0.76847   0.79670    0.000
 5820.00    0.76968   0.79734    0.000
 5821.00    0.77376   0.79783    0.000
 5822.00    0.77895   0.79825    0.000
 5823.00    0.78477   0.79896    0.000
 5824.00    0.79080   0.79955    0.000
 5825.00    0.79807   0.79962    0.000
 5826.00    0.80569   0.79997    0.000
 5827.00    0.80112   0.80060    0.000
 5828.00    0.79371   0.80049    0.000
 5829.00    0.79990   0.80026    0.000
 5830.00    0.80863   0.80058    0.000
 5831.00    0.81229   0.80043    0.000
 5832.00    0.81523   0.79996    0.000
 5833.00    0.80786   0.79995    0.000
 5834.00    0.79942   0.79963    0.000
 5835.00    0.78983   0.79906    0.000
 5836.00    0.78016   0.79867    0.000
 5837.00    0.78506   0.79796    0.000
 5838.00    0.79043   0.79720    0.000
 5839.00    0.79239   0.79650    0.000
 5840.00    0.79433   0.79520    0.000
 5841.00    0.79598   0.79393    0.000
 5842.00    0.79667   0.79285    0.000
 5843.00    0.78285   0.79094    0.000
 5844.00    0.77056   0.78887    0.000
 5845.00    0.77302   0.78724    0.000
 5846.00    0.77395   0.78499    0.000
 5847.00    0.76415   0.78236    0.000
 5848.00    0.75582   0.78012    0.000
 5849.00    0.75551   0.77779    0.000
 5850.00    0.75610   0.77518    0.000
 5851.00    0.76069   0.77280    0.000
 5852.00    0.76209   0.77076    0.000
 5853.00    0.75212   0.76862    0.000
 5854.00    0.74602   0.76664    0.000
 5855.00    0.75148   0.76527    0.000
 5856.00    0.75359   0.76397    0.000
 5857.00    0.74714   0.76283    0.000
 5858.00    0.74085   0.76235    0.000
 5859.00    0.73491   0.76183    0.000
 5860.00    0.73243   0.76149    0.000
 5861.00    0.73657   0.76170    0.000
 5862.00    0.74460   0.76157    0.000
 5863.00    0.75910   0.76176    0.000
 5864.00    0.76557   0.76236    0.000
 5865.00    0.76036   0.76212    0.000
 5866.00    0.75170   0.76218    0.000
 5867.00    0.73861   0.76255    0.000
 5868.00    0.73769   0.76193    0.000
 5869.00    0.75051   0.76160    0.000
 5870.00    0.75543   0.76123    0.000
 5871.00    0.75248   0.75970    0.000
 5872.00    0.74896   0.75840    0.000
 5873.00    0.74493   0.75725    0.000
 5874.00    0.74662   0.75476    0.000
 5875.00    0.75274   0.75208    0.000
 5876.00    0.75138   0.74986    0.000
 5877.00    0.74492   0.74610    0.000
 5878.00    0.74274   0.74166    0.000
 5879.00    0.74310   0.73846    0.000
 5880.00    0.74612   0.73343    0.000
 5881.00    0.75054   0.72728    0.000
 5882.00    0.74622   0.72337    0.000
 5883.00    0.73797   0.71711    0.000
 5884.00    0.72467   0.70970    0.000
 5885.00    0.70941   0.70598    0.000
 5886.00    0.70281   0.69968    0.000
 5887.00    0.69907   0.69280    0.000
 5888.00    0.68354   0.69032    0.000
 5889.00    0.66475   0.68502    0.000
 5890.00    0.64610   0.68071    0.000
 5891.00    0.62749   0.68090    0.000
 5892.00    0.61808   0.67782    0.000
 5893.00    0.61035   0.67730    0.000
 5894.00    0.61706   0.68063    0.000
 5895.00    0.62580   0.68031    0.000
 5896.00    0.63970   0.68361    0.000
 5897.00    0.65412   0.68946    0.000
 5898.00    0.67180   0.69110    0.000
 5899.00    0.68968   0.69684    0.000
 5900.00    0.70407   0.70422    0.000
 5901.00    0.71834   0.70690    0.064
 5902.00    0.72863   0.71285    0.064
 5903.00    0.73857   0.71973    0.065
 5904.00    0.73870   0.72224    0.065
 5905.00    0.73891   0.72700    0.065
 5906.00    0.74028   0.73252    0.064
 5907.00    0.74087   0.73433    0.063
 5908.00    0.73404   0.73732    0.064
 5909.00    0.72849   0.74094    0.064
 5910.00    0.73165   0.74193    0.064
 5911.00    0.73553   0.74366    0.064
 5912.00    0.74322   0.74561    0.064
 5913.00    0.74857   0.74593    0.064
 5914.00    0.74398   0.74716    0.063
 5915.00    0.74014   0.74803    0.063
 5916.00    0.73895   0.74806    0.063
 5917.00    0.73817   0.74927    0.063
 5918.00    0.73856   0.74952    0.063
 5919.00    0.74078   0.74950    0.063
 5920.00    0.74757   0.75081    0.063
 5921.00    0.75405   0.75075    0.064
 5922.00    0.75981   0.75077    0.064
 5923.00    0.76368   0.75190    0.064
 5924.00    0.76399   0.75175    0.064
 5925.00    0.76330   0.75190    0.064
 5926.00    0.76100   0.75265    0.063
 5927.00    0.76028   0.75252    0.063
 5928.00    0.76185   0.75278    0.063
 5929.00    0.76031   0.75313    0.064
 5930.00    0.75487   0.75317    0.064
 5931.00    0.75159   0.75343    0.064
 5932.00    0.75072   0.75352    0.064
 5933.00    0.74669   0.75382    0.064
 5934.00    0.73956   0.75391    0.063
 5935.00    0.73437   0.75393    0.063
 5936.00    0.73086   0.75447    0.063
 5937.00    0.73195   0.75428    0.063
 5938.00    0.73654   0.75427    0.063
 5939.00    0.73891   0.75490    0.063
 5940.00    0.73979   0.75436    0.063
 5941.00    0.73850   0.75433    0.063
 5942.00    0.73595   0.75487    0.063
 5943.00    0.74421   0.75402    0.063
 5944.00    0.75800   0.75395    0.064
 5945.00    0.75794   0.75435    0.064
 5946.00    0.75173   0.75332    0.064
 5947.00    0.74688   0.75319    0.064
 5948.00    0.74255   0.75356    0.064
 5949.00    0.73845   0.75274    0.063
 5950.00    0.73444   0.75264    0.063
 5951.00    0.73061   0.75303    0.062
 5952.00    0.72685   0.75266    0.062
 5953.00    0.72684   0.75285    0.062
 5954.00    0.72767   0.75344    0.063
 5955.00    0.73573   0.75367    0.062
 5956.00    0.74506   0.75427    0.062
 5957.00    0.74734   0.75509    0.062
 5958.00    0.74865   0.75578    0.062
 5959.00    0.75603   0.75665    0.063
 5960.00    0.76398   0.75762    0.064
 5961.00    0.76743   0.75856    0.064
 5962.00    0.77060   0.75941    0.064
 5963.00    0.76809   0.76033    0.063
 5964.00    0.76547   0.76117    0.063
 5965.00    0.77035   0.76162    0.063
 5966.00    0.77488   0.76215    0.063
 5967.00    0.77032   0.76270    0.063
 5968.00    0.76590   0.76258    0.063
 5969.00    0.76347   0.76243    0.063
 5970.00    0.76048   0.76255    0.062
 5971.00    0.75247   0.76195    0.062
 5972.00    0.74446   0.76113    0.062
 5973.00    0.73649   0.76084    0.062
 5974.00    0.72965   0.75997    0.062
 5975.00    0.72859   0.75873    0.062
 5976.00    0.72830   0.75831    0.062
 5977.00    0.73119   0.75750    0.063
 5978.00    0.73447   0.75621    0.063
 5979.00    0.73908   0.75602    0.063
 5980.00    0.74402   0.75555    0.064
 5981.00    0.74995   0.75459    0.064
 5982.00    0.75408   0.75480    0.063
 5983.00    0.75379   0.75481    0.063
 5984.00    0.75255   0.75436    0.062
 5985.00    0.74928   0.75495    0.062
 5986.00    0.74785   0.75536    0.062
 5987.00    0.74978   0.75532    0.062
 5988.00    0.75132   0.75602    0.062
 5989.00    0.75221   0.75662    0.062
 5990.00    0.75359   0.75667    0.063
 5991.00    0.75568   0.75712    0.062
 5992.00    0.75602   0.75768    0.062
 5993.00    0.75420   0.75745    0.062
 5994.00    0.75008   0.75741    0.062
 5995.00    0.74343   0.75777    0.062
 5996.00    0.73879   0.75704    0.063
 5997.00    0.73610   0.75655    0.063
 5998.00    0.73325   0.75664    0.063
 5999.00    0.73027   0.75543    0.062
 6000.00    0.73161   0.75478    0.062
 6001.00    0.73620   0.75465    0.062
 6002.00    0.74117   0.75318    0.062
 6003.00    0.74639   0.75266    0.062
 6004.00    0.74320   0.75237    0.062
 6005.00    0.73515   0.75093    0.062
 6006.00    0.73507   0.75078    0.062
 6007.00    0.73902   0.75037    0.063
 6008.00    0.74290   0.74922    0.063
 6009.00    0.74675   0.74948    0.063
 6010.00    0.74374   0.74903    0.063
 6011.00    0.73817   0.74835    0.062
 6012.00    0.73459   0.74891    0.062
 6013.00    0.73164   0.74860    0.062
 6014.00    0.73106   0.74853    0.062
 6015.00    0.73112   0.74930    0.062
 6016.00    0.73106   0.74934    0.062
 6017.00    0.73097   0.74992    0.062
 6018.00    0.73409   0.75091    0.063
 6019.00    0.73777   0.75151    0.063
 6020.00    0.73207   0.75271    0.063
 6021.00    0.72516   0.75393    0.063
 6022.00    0.72446   0.75517    0.063
 6023.00    0.72433   0.75680    0.063
 6024.00    0.72759   0.75823    0.063
 6025.00    0.73103   0.75997    0.062
 6026.00    0.73653   0.76178    0.062
 6027.00    0.74203   0.76323    0.062
 6028.00    0.74383   0.76519    0.062
 6029.00    0.74556   0.76692    0.063
 6030.00    0.74580   0.76816    0.063
 6031.00    0.74678   0.77002    0.062
 6032.00    0.75737   0.77151    0.062
 6033.00    0.76721   0.77239    0.062
 6034.00    0.77064   0.77397    0.063
 6035.00    0.77293   0.77517    0.063
 6036.00    0.76799   0.77565    0.062
 6037.00    0.76461   0.77692    0.061
 6038.00    0.76898   0.77784    0.062
 6039.00    0.77348   0.77799    0.062
 6040.00    0.77849   0.77896    0.062
 6041.00    0.78122   0.77960    0.062
 6042.00    0.77627   0.77948    0.062
 6043.00    0.76995   0.78014    0.062
 6044.00    0.75976   0.78043    0.061
 6045.00    0.75388   0.78006    0.061
 6046.00    0.75844   0.78033    0.061
 6047.00    0.76581   0.78018    0.062
 6048.00    0.77905   0.77959    0.062
 6049.00    0.78667   0.77942    0.062
 6050.00    0.78410   0.77883    0.062
 6051.00    0.78095   0.77811    0.063
 6052.00    0.77689   0.77762    0.062
 6053.00    0.77582   0.77671    0.063
 6054.00    0.77890   0.77608    0.063
 6055.00    0.77877   0.77551    0.063
 6056.00    0.77468   0.77453    0.063
 6057.00    0.76966   0.77426    0.063
 6058.00    0.76364   0.77393    0.062
 6059.00    0.76117   0.77313    0.062
 6060.00    0.76208   0.77340    0.062
 6061.00    0.76429   0.77350    0.062
 6062.00    0.76759   0.77307    0.062
 6063.00    0.76770   0.77385    0.062
 6064.00    0.76545   0.77436    0.062
 6065.00    0.76223   0.77426    0.062
 6066.00    0.75839   0.77523    0.062
 6067.00    0.75812   0.77586    0.062
 6068.00    0.75989   0.77590    0.062
 6069.00    0.76473   0.77655    0.062
 6070.00    0.77110   0.77690    0.062
 6071.00    0.77046   0.77679    0.062
 6072.00    0.76682   0.77666    0.062
 6073.00    0.76551   0.77643    0.062
 6074.00    0.76507   0.77601    0.061
 6075.00    0.76317   0.77496    0.061
 6076.00    0.76082   0.77416    0.061
 6077.00    0.75406   0.77350    0.060
 6078.00    0.74616   0.77177    0.060
 6079.00    0.74299   0.77070    0.060
 6080.00    0.74081   0.77001    0.061
 6081.00    0.74818   0.76806    0.061
 6082.00    0.75714   0.76713    0.061
 6083.00    0.76092   0.76666    0.061
 6084.00    0.76403   0.76486    0.061
 6085.00    0.75670   0.76438    0.062
 6086.00    0.74846   0.76421    0.062
 6087.00    0.75050   0.76271    0.062
 6088.00    0.75307   0.76275    0.062
 6089.00    0.75621   0.76286    0.062
 6090.00    0.75923   0.76151    0.062
 6091.00    0.75371   0.76198    0.061
 6092.00    0.74856   0.76224    0.061
 6093.00    0.75151   0.76083    0.061
 6094.00    0.75474   0.76156    0.062
 6095.00    0.76146   0.76191    0.061
 6096.00    0.76808   0.76033    0.061
 6097.00    0.77381   0.76120    0.061
 6098.00    0.77782   0.76166    0.061
 6099.00    0.77118   0.75997    0.061
 6100.00    0.76420   0.76101    0.061
 6101.00    0.75557   0.76162    0.061
 6102.00    0.74745   0.76008    0.062
 6103.00    0.74137   0.76130    0.061
 6104.00    0.73651   0.76200    0.061
 6105.00    0.73562   0.76082    0.061
 6106.00    0.73601   0.76211    0.060
 6107.00    0.73993   0.76264    0.060
 6108.00    0.74292   0.76186    0.060
 6109.00    0.74371   0.76294    0.061
 6110.00    0.74611   0.76291    0.061
 6111.00    0.75183   0.76244    0.061
 6112.00    0.75852   0.76299    0.061
 6113.00    0.76693   0.76211    0.062
 6114.00    0.76973   0.76187    0.062
 6115.00    0.76377   0.76180    0.061
 6116.00    0.75721   0.76006    0.060
 6117.00    0.74985   0.76009    0.060
 6118.00    0.74517   0.75960    0.060
 6119.00    0.74374   0.75731    0.060
 6120.00    0.74308   0.75766    0.061
 6121.00    0.74324   0.75710    0.061
 6122.00    0.74496   0.75462    0.062
 6123.00    0.74813   0.75525    0.061
 6124.00    0.74925   0.75482    0.061
 6125.00    0.74866   0.75242    0.061
 6126.00    0.75209   0.75312    0.061
 6127.00    0.75845   0.75283    0.061
 6128.00    0.76282   0.75059    0.061
 6129.00    0.76590   0.75115    0.061
 6130.00    0.76256   0.75095    0.061
 6131.00    0.75562   0.74900    0.060
 6132.00    0.75080   0.74939    0.060
 6133.00    0.74703   0.74934    0.061
 6134.00    0.74016   0.74790    0.061
 6135.00    0.73198   0.74829    0.062
 6136.00    0.72451   0.74854    0.062
 6137.00    0.71730   0.74782    0.062
 6138.00    0.71585   0.74834    0.062
 6139.00    0.71615   0.74887    0.061
 6140.00    0.72671   0.74883    0.062
 6141.00    0.73988   0.74936    0.062
 6142.00    0.74646   0.74978    0.062
 6143.00    0.75168   0.74998    0.061
 6144.00    0.75714   0.75017    0.061
 6145.00    0.76264   0.74987    0.061
 6146.00    0.76538   0.74966    0.061
 6147.00    0.76778   0.74911    0.062
 6148.00    0.76535   0.74758    0.062
 6149.00    0.76251   0.74640    0.061
 6150.00    0.74883   0.74488    0.061
 6151.00    0.73463   0.74199    0.060
 6152.00    0.73880   0.73967    0.060
 6153.00    0.74308   0.73727    0.060
 6154.00    0.73786   0.73335    0.060
 6155.00    0.73242   0.73021    0.060
 6156.00    0.72280   0.72735    0.060
 6157.00    0.71414   0.72307    0.060
 6158.00    0.71654   0.71985    0.060
 6159.00    0.71768   0.71720    0.060
 6160.00    0.70868   0.71338    0.061
 6161.00    0.69859   0.71094    0.061
 6162.00    0.68196   0.70924    0.060
 6163.00    0.66885   0.70649    0.059
 6164.00    0.67246   0.70539    0.060
 6165.00    0.67689   0.70515    0.060
 6166.00    0.68452   0.70378    0.060
 6167.00    0.69204   0.70399    0.060
 6168.00    0.69921   0.70522    0.060
 6169.00    0.70551   0.70516    0.061
 6170.00    0.70943   0.70616    0.061
 6171.00    0.71100   0.70833    0.061
 6172.00    0.70706   0.70925    0.060
 6173.00    0.70360   0.71032    0.060
 6174.00    0.70111   0.71261    0.060
 6175.00    0.69892   0.71398    0.061
 6176.00    0.69724   0.71454    0.060
 6177.00    0.69457   0.71619    0.060
 6178.00    0.69039   0.71744    0.060
 6179.00    0.68770   0.71722    0.060
 6180.00    0.68703   0.71788    0.059
 6181.00    0.68991   0.71858    0.059
 6182.00    0.69702   0.71763    0.059
 6183.00    0.70185   0.71748    0.059
 6184.00    0.70429   0.71757    0.060
 6185.00    0.70570   0.71619    0.060
 6186.00    0.70616   0.71577    0.060
 6187.00    0.70465   0.71561    0.060
 6188.00    0.70154   0.71422    0.060
 6189.00    0.70058   0.71411    0.060
 6190.00    0.70118   0.71416    0.060
 6191.00    0.70249   0.71318    0.060
 6192.00    0.70425   0.71364    0.060
 6193.00    0.70618   0.71419    0.060
 6194.00    0.70822   0.71380    0.061
 6195.00    0.71182   0.71469    0.063
 6196.00    0.71618   0.71563   -2.000
 6197.00    0.72064   0.71568   -2.000
 6198.00    0.72513   0.71657   -2.000
 6199.00    0.71571   0.71751   -2.000
 6200.00    0.70136   0.71758   -2.000
 6201.00    0.70763   0.71795   -2.000
 6202.00    0.72007   0.71847   -2.000
 6203.00    0.74938   0.71808   -2.000
 6204.00    0.78287   0.71754   -2.000
 6205.00    0.78633   0.71734   -2.000
 6206.00    0.78373   0.71624   -2.000
 6207.00    0.76962   0.71465   -2.000
 6208.00    0.75370   0.71373    0.062
 6209.00    0.73736   0.71200    0.061
 6210.00    0.72097   0.70964    0.060
 6211.00    0.70818   0.70821    0.059
 6212.00    0.69569   0.70623    0.059
 6213.00    0.69922   0.70366    0.059
 6214.00    0.70346   0.70205    0.059
 6215.00    0.70761   0.70026    0.059
 6216.00    0.71170   0.69811    0.059
 6217.00    0.71302   0.69659    0.059
 6218.00    0.71426   0.69520    0.059
 6219.00    0.71402   0.69390    0.059
 6220.00    0.71370   0.69261    0.059
 6221.00    0.71252   0.69151    0.059
 6222.00    0.71045   0.69120    0.060
 6223.00    0.70145   0.69018    0.061
 6224.00    0.69436   0.68910    0.062
 6225.00    0.69835   0.68963    0.062
 6226.00    0.70210   0.68897    0.063
 6227.00    0.70481   0.68762    0.063
 6228.00    0.70691   0.68866    0.063
 6229.00    0.70675   0.68853    0.062
 6230.00    0.70632   0.68677    0.061
 6231.00    0.70502   0.68790    0.061
 6232.00    0.70329   0.68844    0.061
 6233.00    0.70041   0.68632    0.060
 6234.00    0.70038   0.68711    0.060
 6235.00    0.70689   0.68833    0.060
 6236.00    0.71226   0.68601    0.060
 6237.00    0.71535   0.68613    0.059
 6238.00    0.71406   0.68791    0.059
 6239.00    0.70515   0.68565    0.059
 6240.00    0.69830   0.68497    0.059
 6241.00    0.69460   0.68706    0.058
 6242.00    0.69387   0.68514    0.059
 6243.00    0.69711   0.68372    0.059
 6244.00    0.69859   0.68586    0.059
 6245.00    0.69797   0.68445    0.060
 6246.00    0.69594   0.68251    0.059
 6247.00    0.69245   0.68449    0.059
 6248.00    0.68758   0.68366    0.059
 6249.00    0.68146   0.68149    0.060
 6250.00    0.67721   0.68327    0.060
 6251.00    0.67445   0.68310    0.060
 6252.00    0.67722   0.68103    0.060
 6253.00    0.68393   0.68275    0.059
 6254.00    0.68617   0.68342    0.060
 6255.00    0.68564   0.68177    0.060
 6256.00    0.68429   0.68360    0.060
 6257.00    0.68251   0.68527    0.061
 6258.00    0.68079   0.68425    0.062
 6259.00    0.67910   0.68616    0.062
 6260.00    0.67422   0.68879    0.065
 6261.00    0.66804   0.68847    0.069
 6262.00    0.66435   0.69022    0.070
 6263.00    0.66154   0.69344    0.071
 6264.00    0.67340   0.69370    0.070
 6265.00    0.68956   0.69502    0.070
 6266.00    0.70342   0.69827    0.067
 6267.00    0.71672   0.69890    0.064
 6268.00    0.72313   0.69969    0.061
 6269.00    0.72818   0.70250    0.059
 6270.00    0.72796   0.70328    0.059
 6271.00    0.72693   0.70365    0.059
 6272.00    0.72484   0.70586    0.059
 6273.00    0.72262   0.70665    0.059
 6274.00    0.72360   0.70683    0.059
 6275.00    0.72482   0.70851    0.060
 6276.00    0.72329   0.70927    0.060
 6277.00    0.72165   0.70945    0.060
 6278.00    0.72157   0.71078    0.060
 6279.00    0.72156   0.71154    0.060
 6280.00    0.72443   0.71174    0.000
 6281.00    0.72714   0.71279    0.000
 6282.00    0.72722   0.71353    0.000
 6283.00    0.72780   0.71363    0.000
 6284.00    0.73363   0.71433    0.000
 6285.00    0.73933   0.71495    0.000
 6286.00    0.74399   0.71479    0.000
 6287.00    0.74722   0.71499    0.000
 6288.00    0.74233   0.71537    0.000
 6289.00    0.73850   0.71487    0.000
 6290.00    0.73944   0.71452    0.000
 6291.00    0.74097   0.71468    0.000
 6292.00    0.74464   0.71393    0.000
 6293.00    0.74595   0.71318    0.000
 6294.00    0.73991   0.71332    0.000
 6295.00    0.73315   0.71260    0.000
 6296.00    0.72450   0.71167    0.000
 6297.00    0.71735   0.71208    0.000
 6298.00    0.71361   0.71171    0.000
 6299.00    0.71200   0.71076    0.000
 6300.00    0.71456   0.71160    0.000
 6301.00    0.71901   0.71178    0.000
 6302.00    0.72667   0.71076    0.000
 6303.00    0.72985   0.71191    0.000
 6304.00    0.72633   0.71268    0.000
 6305.00    0.72441   0.71144    0.000
 6306.00    0.72459   0.71252    0.000
 6307.00    0.72845   0.71385    0.000
 6308.00    0.73657   0.71232    0.000
 6309.00    0.73727   0.71290    0.000
 6310.00    0.73039   0.71472    0.000
 6311.00    0.72387   0.71315    0.000
 6312.00    0.71767   0.71304    0.000
 6313.00    0.71402   0.71527    0.000
 6314.00    0.71240   0.71417    0.000
 6315.00    0.71198   0.71349    0.000
 6316.00    0.71239   0.71598    0.000
 6317.00    0.71458   0.71577    0.000
 6318.00    0.71787   0.71492    0.000
 6319.00    0.72243   0.71738    0.000
 6320.00    0.72768   0.71807    0.000
 6321.00    0.73549   0.71743    0.059
 6322.00    0.74450   0.71957    0.059
 6323.00    0.74573   0.72072    0.059
 6324.00    0.74386   0.72042    0.058
 6325.00    0.74492   0.72200    0.058
 6326.00    0.74699   0.72301    0.058
 6327.00    0.74941   0.72294    0.059
 6328.00    0.75192   0.72389    0.059
 6329.00    0.74943   0.72435    0.059
 6330.00    0.74576   0.72430    0.060
 6331.00    0.74260   0.72478    0.059
 6332.00    0.73953   0.72462    0.059
 6333.00    0.73692   0.72445    0.059
 6334.00    0.73438   0.72470    0.059
 6335.00    0.73169   0.72420    0.059
 6336.00    0.72900   0.72388    0.059
 6337.00    0.72402   0.72412    0.059
 6338.00    0.71888   0.72360    0.058
 6339.00    0.71886   0.72318    0.059
 6340.00    0.71903   0.72345    0.059
 6341.00    0.71874   0.72310    0.059
 6342.00    0.71855   0.72256    0.058
 6343.00    0.72227   0.72277    0.058
 6344.00    0.72598   0.72254    0.059
 6345.00    0.72961   0.72176    0.059
 6346.00    0.73313   0.72167    0.058
 6347.00    0.73550   0.72139    0.057
 6348.00    0.73752   0.72023    0.057
 6349.00    0.73707   0.71965    0.058
 6350.00    0.73588   0.71924    0.058
 6351.00    0.73063   0.71773    0.058
 6352.00    0.72562   0.71663    0.058
 6353.00    0.72169   0.71619    0.058
 6354.00    0.71807   0.71469    0.058
 6355.00    0.71561   0.71332    0.059
 6356.00    0.71461   0.71311    0.059
 6357.00    0.71805   0.71220    0.059
 6358.00    0.72075   0.71109    0.059
 6359.00    0.72154   0.71137    0.060
 6360.00    0.72015   0.71155    0.061
 6361.00    0.71393   0.71127    0.060
 6362.00    0.71002   0.71213    0.060
 6363.00    0.71055   0.71345    0.060
 6364.00    0.71380   0.71427    0.060
 6365.00    0.72164   0.71559    0.060
 6366.00    0.72514   0.71764    0.060
 6367.00    0.72224   0.71934    0.059
 6368.00    0.72107   0.72079    0.059
 6369.00    0.72213   0.72296    0.059
 6370.00    0.72446   0.72507    0.059
 6371.00    0.72824   0.72620    0.059
 6372.00    0.73227   0.72786    0.059
 6373.00    0.73654   0.72989    0.059
 6374.00    0.74034   0.73051    0.059
 6375.00    0.74370   0.73130    0.058
 6376.00    0.74756   0.73295    0.058
 6377.00    0.75180   0.73304    0.058
 6378.00    0.75222   0.73295    0.058
 6379.00    0.75002   0.73417    0.059
 6380.00    0.74574   0.73382    0.059
 6381.00    0.74020   0.73299    0.059
 6382.00    0.74144   0.73396    0.059
 6383.00    0.74624   0.73344    0.060
 6384.00    0.74981   0.73206    0.060
 6385.00    0.75282   0.73294    0.059
 6386.00    0.74816   0.73242    0.059
 6387.00    0.74049   0.73051    0.059
 6388.00    0.73982   0.73147    0.059
 6389.00    0.74149   0.73134    0.059
 6390.00    0.74469   0.72902    0.059
 6391.00    0.74833   0.73002    0.058
 6392.00    0.74674   0.73054    0.058
 6393.00    0.74393   0.72813    0.059
 6394.00    0.73856   0.72898    0.059
 6395.00    0.73270   0.73013    0.060
 6396.00    0.73548   0.72812    0.060
 6397.00    0.73951   0.72867    0.060
 6398.00    0.73839   0.73010    0.060
 6399.00    0.73675   0.72883    0.059
 6400.00    0.72865   0.72916    0.059
 6401.00    0.72011   0.73034    0.059
 6402.00    0.72113   0.72978    0.059
 6403.00    0.72246   0.73008    0.059
 6404.00    0.73068   0.73067    0.059
 6405.00    0.73857   0.73041    0.060
 6406.00    0.73601   0.73094    0.060
 6407.00    0.73350   0.73100    0.060
 6408.00    0.73158   0.73041    0.060
 6409.00    0.72992   0.73124    0.060
 6410.00    0.73074   0.73132    0.060
 6411.00    0.73062   0.73010    0.060
 6412.00    0.72394   0.73099    0.059
 6413.00    0.71841   0.73172    0.058
 6414.00    0.71914   0.73009    0.058
 6415.00    0.72128   0.73062    0.058
 6416.00    0.72951   0.73214    0.059
 6417.00    0.73582   0.73061    0.059
 6418.00    0.73529   0.73060    0.059
 6419.00    0.73306   0.73270    0.059
 6420.00    0.72573   0.73168    0.059
 6421.00    0.72362   0.73101    0.058
 6422.00    0.73481   0.73322    0.057
 6423.00    0.74658   0.73309    0.057
 6424.00    0.75960   0.73215    0.058
 6425.00    0.76824   0.73386    0.059
 6426.00    0.76855   0.73437    0.060
 6427.00    0.76579   0.73363    0.060
 6428.00    0.75791   0.73463    0.060
 6429.00    0.75412   0.73526    0.060
 6430.00    0.75627   0.73508    0.061
 6431.00    0.75892   0.73576    0.061
 6432.00    0.76222   0.73632    0.061
 6433.00    0.75894   0.73650    0.061
 6434.00    0.74826   0.73705    0.060
 6435.00    0.74051   0.73746    0.060
 6436.00    0.73568   0.73766    0.060
 6437.00    0.73381   0.73822    0.059
 6438.00    0.73454   0.73870    0.059
 6439.00    0.73523   0.73832    0.059
 6440.00    0.73590   0.73844    0.059
 6441.00    0.74063   0.73930    0.059
 6442.00    0.74812   0.73853    0.059
 6443.00    0.74807   0.73807    0.059
 6444.00    0.74353   0.73926    0.059
 6445.00    0.74075   0.73823    0.058
 6446.00    0.73888   0.73685    0.057
 6447.00    0.74158   0.73823    0.058
 6448.00    0.74633   0.73789    0.059
 6449.00    0.74342   0.73587    0.060
 6450.00    0.73753   0.73696    0.060
 6451.00    0.72749   0.73785    0.060
 6452.00    0.71608   0.73549    0.059
 6453.00    0.71480   0.73575    0.059
 6454.00    0.71633   0.73816    0.059
 6455.00    0.71830   0.73638    0.059
 6456.00    0.72038   0.73557    0.059
 6457.00    0.71632   0.73880    0.060
 6458.00    0.71115   0.73800    0.061
 6459.00    0.70935   0.73623    0.060
 6460.00    0.70803   0.73944    0.060
 6461.00    0.70873   0.73967    0.059
 6462.00    0.70964   0.73722    0.059
 6463.00    0.71429   0.73978    0.059
 6464.00    0.71918   0.74102    0.058
 6465.00    0.73286   0.73827    0.058
 6466.00    0.74676   0.73958    0.058
 6467.00    0.75430   0.74150    0.058
 6468.00    0.76159   0.73885    0.058
 6469.00    0.76208   0.73867    0.058
 6470.00    0.76249   0.74085    0.058
 6471.00    0.76172   0.73863    0.058
 6472.00    0.76136   0.73697    0.059
 6473.00    0.76479   0.73874    0.060
 6474.00    0.76604   0.73717    0.061
 6475.00    0.75257   0.73445    0.066
 6476.00    0.74121   0.73533    0.073
 6477.00    0.74095   0.73436    0.076
 6478.00    0.74409   0.73117    0.080
 6479.00    0.76162   0.73085    0.080
 6480.00    0.77296   0.72995    0.078
 6481.00    0.76270   0.72653    0.067
 6482.00    0.75208   0.72519    0.061
 6483.00    0.74036   0.72411    0.061
 6484.00    0.73246   0.72046    0.060
 6485.00    0.73412   0.71830    0.059
 6486.00    0.73755   0.71706    0.059
 6487.00    0.74480   0.71352    0.059
 6488.00    0.74687   0.71095    0.059
 6489.00    0.73924   0.70962    0.059
 6490.00    0.72989   0.70681    0.059
 6491.00    0.71773   0.70466    0.058
 6492.00    0.70988   0.70353    0.058
 6493.00    0.70824   0.70184    0.057
 6494.00    0.70499   0.70067    0.057
 6495.00    0.69970   0.70035    0.057
 6496.00    0.69999   0.70016    0.058
 6497.00    0.70648   0.70034    0.058
 6498.00    0.71135   0.70105    0.059
 6499.00    0.71466   0.70211    0.059
 6500.00    0.71955   0.70356    0.059
 6501.00    0.72580   0.70526    0.059
 6502.00    0.73273   0.70691    0.060
 6503.00    0.74018   0.70912    0.060
 6504.00    0.74451   0.71155    0.060
 6505.00    0.74674   0.71307    0.060
 6506.00    0.74979   0.71526    0.060
 6507.00    0.75332   0.71792    0.060
 6508.00    0.75890   0.71885    0.060
 6509.00    0.76554   0.72038    0.061
 6510.00    0.76894   0.72296    0.061
 6511.00    0.77092   0.72344    0.060
 6512.00    0.77013   0.72399    0.059
 6513.00    0.76828   0.72603    0.059
 6514.00    0.76613   0.72653    0.059
 6515.00    0.76388   0.72650    0.059
 6516.00    0.76514   0.72776    0.059
 6517.00    0.76734   0.72832    0.058
 6518.00    0.76666   0.72824    0.058
 6519.00    0.76533   0.72895    0.058
 6520.00    0.76261   0.72955    0.057
 6521.00    0.75965   0.72960    0.057
 6522.00    0.76020   0.73008    0.057
 6523.00    0.76123   0.73071    0.058
 6524.00    0.76684   0.73090    0.059
 6525.00    0.77289   0.73125    0.059
 6526.00    0.76534   0.73172    0.059
 6527.00    0.75699   0.73187    0.059
 6528.00    0.75318   0.73232    0.000
 6529.00    0.74954   0.73275    0.000
 6530.00    0.75343   0.73259    0.000
 6531.00    0.75736   0.73281    0.000
 6532.00    0.76209   0.73307    0.000
 6533.00    0.76623   0.73254    0.000
 6534.00    0.76264   0.73240    0.000
 6535.00    0.75938   0.73225    0.000
 6536.00    0.75901   0.73098    0.000
 6537.00    0.75917   0.73022    0.000
 6538.00    0.76273   0.72971    0.000
 6539.00    0.76605   0.72766    0.000
 6540.00    0.76813   0.72595    0.000
 6541.00    0.77010   0.72485    0.000
 6542.00    0.77166   0.72221    0.000
 6543.00    0.77108   0.71948    0.000
 6544.00    0.76317   0.71743    0.000
 6545.00    0.75821   0.71417    0.000
 6546.00    0.76171   0.71028    0.000
 6547.00    0.76621   0.70741    0.000
 6548.00    0.77314   0.70374    0.000
 6549.00    0.77606   0.69846    0.000
 6550.00    0.77048   0.69493    0.000
 6551.00    0.76458   0.69176    0.000
 6552.00    0.75809   0.68517    0.000
 6553.00    0.75150   0.68049    0.000
 6554.00    0.74475   0.67892    0.000
 6555.00    0.73984   0.67214    0.000
 6556.00    0.73752   0.66542    0.000
 6557.00    0.73491   0.66599    0.000
 6558.00    0.73194   0.66283    0.000
 6559.00    0.72897   0.65600    0.000
 6560.00    0.72602   0.65698    0.000
 6561.00    0.72085   0.65757    0.000
 6562.00    0.71354   0.65224    0.000
 6563.00    0.70730   0.65326    0.000
 6564.00    0.70196   0.65769    0.000
 6565.00    0.70065   0.65543    0.000
 6566.00    0.70237   0.65610    0.000
 6567.00    0.70575   0.66280    0.000
 6568.00    0.71022   0.66391    0.000
 6569.00    0.71810   0.66453    0.000
 6570.00    0.72794   0.67165    0.000
 6571.00    0.73172   0.67525    0.000
 6572.00    0.73244   0.67576    0.000
 6573.00    0.73506   0.68163    0.000
 6574.00    0.73849   0.68663    0.000
 6575.00    0.73967   0.68806    0.000
 6576.00    0.74000   0.69184    0.000
 6577.00    0.74188   0.69605    0.000
 6578.00    0.74426   0.69799    0.000
 6579.00    0.75589   0.69999    0.000
 6580.00    0.76998   0.70293    0.000
 6581.00    0.78985   0.70514    0.000
 6582.00    0.81097   0.70615    0.000
 6583.00    0.82285   0.70751    0.000
 6584.00    0.83316   0.70941    0.000
 6585.00    0.82341   0.71004    0.000
 6586.00    0.81105   0.70981    0.000
 6587.00    0.80224   0.71104    0.000
 6588.00    0.79375   0.71208    0.000
 6589.00    0.78058   0.71117    0.000
 6590.00    0.76715   0.71152    0.000
 6591.00    0.75598   0.71264    0.000
 6592.00    0.74491   0.71153    0.000
 6593.00    0.73773   0.71147    0.000
 6594.00    0.73076   0.71293    0.000
 6595.00    0.72872   0.71203    0.000
 6596.00    0.72681   0.71142    0.000
 6597.00    0.72649   0.71291    0.000
 6598.00    0.72745   0.71270    0.000
 6599.00    0.73934   0.71172    0.000
 6600.00    0.74949   0.71296    0.000
 6601.00    0.74854   0.71355    0.000
 6602.00    0.74708   0.71230    0.000
 6603.00    0.74312   0.71304    0.000
 6604.00    0.74077   0.71454    0.000
 6605.00    0.74493   0.71406    0.000
 6606.00    0.74776   0.71414    0.000
 6607.00    0.74610   0.71525    0.000
 6608.00    0.74510   0.71549    0.000
 6609.00    0.74594   0.71557    0.059
 6610.00    0.74530   0.71627    0.059
 6611.00    0.74112   0.71683    0.059
 6612.00    0.73953   0.71690    0.059
 6613.00    0.74336   0.71719    0.058
 6614.00    0.74819   0.71763    0.058
 6615.00    0.75485   0.71768    0.058
 6616.00    0.76221   0.71773    0.059
 6617.00    0.77070   0.71761    0.059
 6618.00    0.77702   0.71730    0.059
 6619.00    0.78032   0.71727    0.060
 6620.00    0.78069   0.71665    0.060
 6621.00    0.77747   0.71604    0.060
 6622.00    0.77677   0.71589    0.061
 6623.00    0.77879   0.71467    0.061
 6624.00    0.77705   0.71359    0.061
 6625.00    0.77175   0.71352    0.062
 6626.00    0.76380   0.71231    0.062
 6627.00    0.75362   0.71070    0.061
 6628.00    0.74859   0.71065    0.060
 6629.00    0.74735   0.71006    0.060
 6630.00    0.74759   0.70838    0.060
 6631.00    0.74878   0.70829    0.060
 6632.00    0.74408   0.70833    0.061
 6633.00    0.73605   0.70663    0.062
 6634.00    0.73426   0.70656    0.062
 6635.00    0.73556   0.70746    0.061
 6636.00    0.73922   0.70584    0.061
 6637.00    0.74389   0.70529    0.060
 6638.00    0.74361   0.70689    0.060
 6639.00    0.74151   0.70596    0.060
 6640.00    0.74454   0.70463    0.059
 6641.00    0.74916   0.70610    0.059
 6642.00    0.74360   0.70628    0.060
 6643.00    0.73542   0.70458    0.060
 6644.00    0.72993   0.70515    0.060
 6645.00    0.72502   0.70604    0.059
 6646.00    0.72883   0.70447    0.060
 6647.00    0.73409   0.70399    0.061
 6648.00    0.73412   0.70509    0.061
 6649.00    0.73349   0.70391    0.061
 6650.00    0.73226   0.70248    0.060
 6651.00    0.73097   0.70338    0.059
 6652.00    0.73318   0.70298    0.059
 6653.00    0.73557   0.70096    0.059
 6654.00    0.74215   0.70107    0.059
 6655.00    0.74878   0.70143    0.059
 6656.00    0.75378   0.69945    0.059
 6657.00    0.75813   0.69864    0.058
 6658.00    0.74865   0.69943    0.058
 6659.00    0.73931   0.69808    0.058
 6660.00    0.73148   0.69672    0.059
 6661.00    0.72387   0.69740    0.059
 6662.00    0.71806   0.69699    0.059
 6663.00    0.71257   0.69567    0.059
 6664.00    0.70897   0.69581    0.059
 6665.00    0.70684   0.69608    0.059
 6666.00    0.71184   0.69522    0.060
 6667.00    0.71716   0.69467    0.061
 6668.00    0.72378   0.69500    0.061
 6669.00    0.72945   0.69489    0.061
 6670.00    0.73201   0.69390    0.061
 6671.00    0.73476   0.69333    0.061
 6672.00    0.73804   0.69390    0.061
 6673.00    0.73961   0.69364    0.061
 6674.00    0.73711   0.69204    0.061
 6675.00    0.73317   0.69232    0.061
 6676.00    0.72629   0.69326    0.059
 6677.00    0.72400   0.69173    0.059
 6678.00    0.72991   0.69107    0.059
 6679.00    0.73481   0.69242    0.059
 6680.00    0.73813   0.69178    0.059
 6681.00    0.73940   0.69051    0.059
 6682.00    0.73784   0.69168    0.059
 6683.00    0.73757   0.69207    0.059
 6684.00    0.73885   0.69067    0.059
 6685.00    0.74157   0.69118    0.060
 6686.00    0.74580   0.69233    0.060
 6687.00    0.74574   0.69166    0.061
 6688.00    0.74166   0.69137    0.061
 6689.00    0.73503   0.69210    0.061
 6690.00    0.72628   0.69224    0.061
 6691.00    0.72544   0.69186    0.061
 6692.00    0.73037   0.69176    0.061
 6693.00    0.73323   0.69205    0.062
 6694.00    0.73478   0.69189    0.062
 6695.00    0.73035   0.69155    0.061
 6696.00    0.72257   0.69153    0.000
 6697.00    0.72103   0.69132    0.000
 6698.00    0.72252   0.69098    0.000
 6699.00    0.72786   0.69063    0.000
 6700.00    0.73480   0.69014    0.000
 6701.00    0.73130   0.68978    0.000
 6702.00    0.72403   0.68937    0.000
 6703.00    0.72175   0.68852    0.000
 6704.00    0.72100   0.68787    0.000
 6705.00    0.72120   0.68757    0.000
 6706.00    0.72165   0.68654    0.000
 6707.00    0.72607   0.68529    0.000
 6708.00    0.73130   0.68495    0.000
 6709.00    0.73567   0.68412    0.000
 6710.00    0.73990   0.68233    0.000
 6711.00    0.73660   0.68157    0.000
 6712.00    0.73238   0.68146    0.000
 6713.00    0.74354   0.67998    0.000
 6714.00    0.75599   0.67882    0.000
 6715.00    0.74826   0.67907    0.000
 6716.00    0.73958   0.67848    0.000
 6717.00    0.74634   0.67755    0.000
 6718.00    0.75311   0.67761    0.000
 6719.00    0.74884   0.67770    0.000
 6720.00    0.74429   0.67751    0.000
 6721.00    0.73421   0.67752    0.000
 6722.00    0.72451   0.67786    0.000
 6723.00    0.71921   0.67823    0.000
 6724.00    0.71403   0.67851    0.000
 6725.00    0.70985   0.67898    0.000
 6726.00    0.70821   0.67955    0.000
 6727.00    0.72180   0.68009    0.000
 6728.00    0.73661   0.68023    0.000
 6729.00    0.75722   0.68040    0.000
 6730.00    0.77274   0.68110    0.000
 6731.00    0.76865   0.68119    0.000
 6732.00    0.76573   0.68066    0.000
 6733.00    0.76660   0.68094    0.000
 6734.00    0.76201   0.68139    0.000
 6735.00    0.74253   0.68051    0.000
 6736.00    0.72543   0.67986    0.000
 6737.00    0.71390   0.68062    0.000
 6738.00    0.70821   0.68012    0.000
 6739.00    0.71432   0.67859    0.000
 6740.00    0.72134   0.67897    0.000
 6741.00    0.72995   0.67927    0.000
 6742.00    0.73336   0.67777    0.000
 6743.00    0.72875   0.67739    0.000
 6744.00    0.72667   0.67837    0.000
 6745.00    0.72801   0.67746    0.000
 6746.00    0.72436   0.67631    0.000
 6747.00    0.71477   0.67795    0.000
 6748.00    0.70997   0.67827    0.000
 6749.00    0.71017   0.67670    0.000
 6750.00    0.70793   0.67801    0.000
 6751.00    0.70342   0.67953    0.000
 6752.00    0.70407   0.67870    0.000
 6753.00    0.70893   0.67921    0.065
 6754.00    0.71330   0.68103    0.067
 6755.00    0.71732   0.68117    0.069
 6756.00    0.71404   0.68112    0.069
 6757.00    0.70615   0.68276    0.069
 6758.00    0.70966   0.68357    0.070
 6759.00    0.71947   0.68331    0.071
 6760.00    0.75077   0.68433    0.073
 6761.00    0.79237   0.68531    0.075
 6762.00    0.81146   0.68551    0.075
 6763.00    0.82124   0.68580    0.075
 6764.00    0.83117   0.68622    0.074
 6765.00    0.84116   0.68691    0.074
 6766.00    0.83971   0.68722    0.073
 6767.00    0.83485   0.68699    0.071
 6768.00    0.82674   0.68743    0.070
 6769.00    0.81784   0.68799    0.068
 6770.00    0.81342   0.68767    0.067
 6771.00    0.80989   0.68770    0.066
 6772.00    0.79764   0.68834    0.066
 6773.00    0.78402   0.68782    0.065
 6774.00    0.77999   0.68724    0.065
 6775.00    0.77709   0.68789    0.066
 6776.00    0.75575   0.68749    0.066
 6777.00    0.73294   0.68643    0.066
 6778.00    0.74531   0.68650    0.068
 6779.00    0.75921   0.68602    0.069
 6780.00    0.77344   0.68493    0.071
 6781.00    0.78718   0.68489    0.073
 6782.00    0.77800   0.68444    0.071
 6783.00    0.76975   0.68325    0.070
 6784.00    0.77850   0.68325    0.069
 6785.00    0.78574   0.68320    0.068
 6786.00    0.77641   0.68188    0.067
 6787.00    0.76658   0.68176    0.066
 6788.00    0.75295   0.68240    0.066
 6789.00    0.74368   0.68126    0.066
 6790.00    0.75973   0.68080    0.067
 6791.00    0.77245   0.68212    0.067
 6792.00    0.76981   0.68184    0.066
 6793.00    0.76913   0.68128    0.066
 6794.00    0.77585   0.68267    0.066
 6795.00    0.77935   0.68324    0.067
 6796.00    0.77268   0.68249    0.066
 6797.00    0.77013   0.68323    0.066
 6798.00    0.77866   0.68465    0.067
 6799.00    0.77771   0.68418    0.068
 6800.00    0.75498   0.68391    0.068
 6801.00    0.73610   0.68548    0.067
 6802.00    0.72488   0.68575    0.067
 6803.00    0.72132   0.68507    0.067
 6804.00    0.73108   0.68613    0.067
 6805.00    0.73677   0.68692    0.067
 6806.00    0.73633   0.68625    0.067
 6807.00    0.73744   0.68646    0.066
 6808.00    0.74062   0.68749    0.065
 6809.00    0.74286   0.68746    0.064
 6810.00    0.74399   0.68701    0.064
 6811.00    0.73547   0.68758    0.065
 6812.00    0.71696   0.68816    0.066
 6813.00    0.71967   0.68792    0.066
 6814.00    0.74174   0.68822    0.067
 6815.00    0.75763   0.68881    0.067
 6816.00    0.76855   0.68875    0.067
 6817.00    0.76927   0.68886    0.066
 6818.00    0.76278   0.68936    0.065
 6819.00    0.75382   0.68982    0.064
 6820.00    0.74332   0.68995    0.065
 6821.00    0.74148   0.68975    0.065
 6822.00    0.74433   0.69020    0.066
 6823.00    0.74895   0.69071    0.066
 6824.00    0.75439   0.69042    0.066
 6825.00    0.74784   0.69025    0.066
 6826.00    0.73641   0.69050    0.066
 6827.00    0.73242   0.69058    0.067
 6828.00    0.73102   0.69024    0.067
 6829.00    0.73939   0.68999    0.067
 6830.00    0.75061   0.69016    0.067
 6831.00    0.76331   0.68983    0.067
 6832.00    0.77636   0.68918    0.067
 6833.00    0.77677   0.68907    0.066
 6834.00    0.77470   0.68878    0.066
 6835.00    0.77542   0.68787    0.066
 6836.00    0.77657   0.68749    0.066
 6837.00    0.76205   0.68749    0.067
 6838.00    0.74577   0.68686    0.069
 6839.00    0.73134   0.68619    0.068
 6840.00    0.71705   0.68622    0.068
 6841.00    0.71802   0.68611    0.067
 6842.00    0.71960   0.68551    0.067
 6843.00    0.71996   0.68518    0.067
 6844.00    0.72073   0.68495    0.067
 6845.00    0.73776   0.68452    0.067
 6846.00    0.75403   0.68441    0.067
 6847.00    0.75748   0.68382    0.067
 6848.00    0.76194   0.68317    0.068
 6849.00    0.77703   0.68365    0.068
 6850.00    0.78905   0.68337    0.068
 6851.00    0.77831   0.68205    0.067
 6852.00    0.76759   0.68235    0.067
 6853.00    0.75698   0.68262    0.066
 6854.00    0.74609   0.68095    0.066
 6855.00    0.73396   0.68070    0.065
 6856.00    0.72386   0.68194    0.064
 6857.00    0.72131   0.68050    0.064
 6858.00    0.71967   0.67888    0.064
 6859.00    0.72086   0.68073    0.065
 6860.00    0.72253   0.68113    0.066
 6861.00    0.72543   0.67878    0.066
 6862.00    0.72594   0.67954    0.066
 6863.00    0.72104   0.68126    0.066
 6864.00    0.71715   0.67945    0.066
 6865.00    0.71521   0.67893    0.066
 6866.00    0.71718   0.68156    0.066
 6867.00    0.72581   0.68135    0.068
 6868.00    0.72932   0.67937    0.068
 6869.00    0.72518   0.68109    0.069
 6870.00    0.72661   0.68313    0.068
 6871.00    0.73535   0.68172    0.068
 6872.00    0.74714   0.68153    0.067
 6873.00    0.76246   0.68398    0.067
 6874.00    0.76480   0.68422    0.067
 6875.00    0.75391   0.68307    0.066
 6876.00    0.74606   0.68489    0.066
 6877.00    0.74096   0.68676    0.066
 6878.00    0.73675   0.68561    0.065
 6879.00    0.73325   0.68557    0.064
 6880.00    0.72816   0.68840    0.064
 6881.00    0.72197   0.68916    0.064
 6882.00    0.72018   0.68790    0.064
 6883.00    0.72109   0.68973    0.066
 6884.00    0.72186   0.69211    0.066
 6885.00    0.72256   0.69125    0.065
 6886.00    0.72706   0.69149    0.065
 6887.00    0.73332   0.69427    0.066
 6888.00    0.73766   0.69470    0.067
 6889.00    0.74123   0.69373    0.067
 6890.00    0.74314   0.69587    0.068
 6891.00    0.74448   0.69776    0.068
 6892.00    0.73953   0.69680    0.069
 6893.00    0.73277   0.69740    0.069
 6894.00    0.73017   0.69977    0.068
 6895.00    0.72855   0.69994    0.067
 6896.00    0.72668   0.69931    0.067
 6897.00    0.72476   0.70069    0.066
 6898.00    0.73775   0.70201    0.067
 6899.00    0.75294   0.70156    0.068
 6900.00    0.74887   0.70163    0.068
 6901.00    0.74273   0.70277    0.069
 6902.00    0.74342   0.70310    0.068
 6903.00    0.74459   0.70270    0.068
 6904.00    0.74306   0.70306    0.067
 6905.00    0.74143   0.70385    0.067
 6906.00    0.73574   0.70354    0.068
 6907.00    0.73033   0.70286    0.068
 6908.00    0.73478   0.70346    0.068
 6909.00    0.73932   0.70374    0.069
 6910.00    0.74537   0.70248    0.070
 6911.00    0.74894   0.70229    0.071
 6912.00    0.72767   0.70302    0.070
 6913.00    0.70975   0.70223    0.068
 6914.00    0.71590   0.70142    0.069
 6915.00    0.72035   0.70178    0.069
 6916.00    0.71544   0.70171    0.069
 6917.00    0.71271   0.70074    0.068
 6918.00    0.71960   0.70071    0.068
 6919.00    0.72689   0.70097    0.068
 6920.00    0.73558   0.70003    0.068
 6921.00    0.74114   0.69968    0.067
 6922.00    0.73718   0.69993    0.067
 6923.00    0.73754   0.69992    0.067
 6924.00    0.74906   0.69997    0.068
 6925.00    0.75349   0.69995    0.068
 6926.00    0.74217   0.69999    0.069
 6927.00    0.73248   0.70022    0.069
 6928.00    0.72592   0.70042    0.069
 6929.00    0.72340   0.70012    0.069
 6930.00    0.72768   0.70032    0.070
 6931.00    0.72730   0.70104    0.071
 6932.00    0.72007   0.70102    0.071
 6933.00    0.71666   0.70114    0.071
 6934.00    0.71821   0.70169    0.072
 6935.00    0.71720   0.70198    0.072
 6936.00    0.71328   0.70208    0.072
 6937.00    0.71545   0.70226    0.072
 6938.00    0.72375   0.70257    0.072
 6939.00    0.72403   0.70273    0.072
 6940.00    0.71719   0.70262    0.072
 6941.00    0.71010   0.70240    0.071
 6942.00    0.70282   0.70300    0.070
 6943.00    0.70722   0.70359    0.070
 6944.00    0.71967   0.70301    0.071
 6945.00    0.72676   0.70334    0.071
 6946.00    0.73064   0.70431    0.070
 6947.00    0.73013   0.70376    0.070
 6948.00    0.72731   0.70345    0.069
 6949.00    0.72056   0.70467    0.069
 6950.00    0.71202   0.70501    0.070
 6951.00    0.72305   0.70441    0.071
 6952.00    0.74176   0.70555    0.072
 6953.00    0.73243   0.70694    0.072
 6954.00    0.71371   0.70657    0.071
 6955.00    0.71633   0.70692    0.071
 6956.00    0.72493   0.70838    0.072
 6957.00    0.72398   0.70867    0.073
 6958.00    0.72081   0.70857    0.075
 6959.00    0.72533   0.70977    0.074
 6960.00    0.73128   0.71072    0.073
 6961.00    0.73518   0.71044    0.072
 6962.00    0.73879   0.71086    0.072
 6963.00    0.73121   0.71181    0.071
 6964.00    0.72246   0.71165    0.071
 6965.00    0.72584   0.71139    0.072
 6966.00    0.73002   0.71202    0.073
 6967.00    0.73129   0.71152    0.073
 6968.00    0.73247   0.71052    0.073
 6969.00    0.73222   0.71131    0.073
 6970.00    0.73213   0.71141    0.073
 6971.00    0.73692   0.70978    0.074
 6972.00    0.74099   0.70965    0.074
 6973.00    0.73436   0.71048    0.074
 6974.00    0.72732   0.70884    0.073
 6975.00    0.71625   0.70744    0.074
 6976.00    0.70734   0.70923    0.076
 6977.00    0.71350   0.70935    0.077
 6978.00    0.71972   0.70756    0.077
 6979.00    0.72621   0.70858    0.077
 6980.00    0.73095   0.71004    0.076
 6981.00    0.72815   0.70895    0.075
 6982.00    0.72452   0.70866    0.074
 6983.00    0.71793   0.71063    0.073
 6984.00    0.71348   0.71092    0.073
 6985.00    0.71537   0.70988    0.073
 6986.00    0.71898   0.71109    0.073
 6987.00    0.72696   0.71264    0.072
 6988.00    0.73527   0.71236    0.072
 6989.00    0.74433   0.71222    0.072
 6990.00    0.74310   0.71306    0.073
 6991.00    0.72233   0.71339    0.074
 6992.00    0.71096   0.71289    0.075
 6993.00    0.71513   0.71287    0.075
 6994.00    0.71906   0.71354    0.075
 6995.00    0.72263   0.71324    0.075
 6996.00    0.71965   0.71225    0.075
 6997.00    0.70833   0.71227    0.075
 6998.00    0.71153   0.71285    0.075
 6999.00    0.73106   0.71239    0.076
 7000.00    0.73191   0.71130    0.077
 7001.00    0.71424   0.71132    0.076
 7002.00    0.70454   0.71134    0.076
 7003.00    0.70182   0.71051    0.076
 7004.00    0.70162   0.71020    0.076
 7005.00    0.70337   0.71032    0.076
 7006.00    0.70464   0.70997    0.077
 7007.00    0.70559   0.70949    0.080
 7008.00    0.70422   0.70949    0.080
 7009.00    0.70148   0.70951    0.079
 7010.00    0.70458   0.70957    0.079
 7011.00    0.71072   0.70947    0.080
 7012.00    0.71231   0.70847    0.081
 7013.00    0.71185   0.70828    0.082
 7014.00    0.71218   0.70952    0.082
 7015.00    0.71282   0.70969    0.082
 7016.00    0.70415   0.70904    0.081
 7017.00    0.69241   0.70988    0.081
 7018.00    0.69807   0.71079    0.082
 7019.00    0.70850   0.70980    0.084
 7020.00    0.71172   0.70961    0.083
 7021.00    0.71329   0.71139    0.083
 7022.00    0.71311   0.71210    0.083
 7023.00    0.71261   0.71139    0.082
 7024.00    0.70999   0.71224    0.082
 7025.00    0.70708   0.71425    0.081
 7026.00    0.71859   0.71448    0.081
 7027.00    0.73153   0.71386    0.080
 7028.00    0.71769   0.71526    0.080
 7029.00    0.70218   0.71720    0.080
 7030.00    0.70639   0.71696    0.081
 7031.00    0.71119   0.71709    0.081
 7032.00    0.72330   0.71996    0.082
 7033.00    0.73471   0.72134    0.083
 7034.00    0.72714   0.71972    0.082
 7035.00    0.71914   0.72069    0.081
 7036.00    0.70500   0.72389    0.082
 7037.00    0.69365   0.72370    0.083
 7038.00    0.70810   0.72277    0.083
 7039.00    0.72051   0.72522    0.084
 7040.00    0.71918   0.72633    0.085
 7041.00    0.72115   0.72382    0.085
 7042.00    0.74044   0.72363    0.085
 7043.00    0.75527   0.72542    0.084
 7044.00    0.75134   0.72374    0.083
 7045.00    0.74886   0.72135    0.083
 7046.00    0.75147   0.72163    0.084
 7047.00    0.74637   0.72082    0.084
 7048.00    0.71868   0.71705    0.083
 7049.00    0.70541   0.71441    0.082
 7050.00    0.72810   0.71330   -2.000
 7051.00    0.75281   0.70996   -2.000
 7052.00    0.78189   0.70616   -2.000
 7053.00    0.79770   0.70453   -2.000
 7054.00    0.78874   0.70242   -2.000
 7055.00    0.78589   0.69828   -2.000
 7056.00    0.79299   0.69489   -2.000
 7057.00    0.78908   0.69302   -2.000
 7058.00    0.76943   0.69010   -2.000
 7059.00    0.76588   0.68706   -2.000
 7060.00    0.78258   0.68594   -2.000
 7061.00    0.79666   0.68455   -2.000
 7062.00    0.80784   0.68213   -2.000
 7063.00    0.82132   0.68087   -2.000
 7064.00    0.83705   0.68025   -2.000
 7065.00    0.83653   0.67884   -2.000
 7066.00    0.82201   0.67811   -2.000
 7067.00    0.80092   0.67854   -2.000
 7068.00    0.77485   0.67811   -2.000
 7069.00    0.76628   0.67748   -2.000
 7070.00    0.76939   0.67802   -2.000
 7071.00    0.78944   0.67804   -2.000
 7072.00    0.81940   0.67710   -2.000
 7073.00    0.83675   0.67679   -2.000
 7074.00    0.84767   0.67697   -2.000
 7075.00    0.84627   0.67638   -2.000
 7076.00    0.83943   0.67536   -2.000
 7077.00    0.81927   0.67475   -2.000
 7078.00    0.79405   0.67393   -2.000
 7079.00    0.80178   0.67212   -2.000
 7080.00    0.82011   0.66994   -2.000
 7081.00    0.81068   0.66861   -2.000
 7082.00    0.79376   0.66728   -2.000
 7083.00    0.76445   0.66481   -2.000
 7084.00    0.73240   0.66240   -2.000
 7085.00    0.76441   0.66103   -2.000
 7086.00    0.80767   0.65892   -2.000
 7087.00    0.79042   0.65603   -2.000
 7088.00    0.76506   0.65476   -2.000
 7089.00    0.76025   0.65356   -2.000
 7090.00    0.75740   0.65141   -2.000
 7091.00    0.74082   0.64981   -2.000
 7092.00    0.72343   0.64918   -2.000
 7093.00    0.70490   0.64817   -2.000
 7094.00    0.68660   0.64713   -2.000
 7095.00    0.70441   0.64736   -2.000
 7096.00    0.72101   0.64687   -2.000
 7097.00    0.70766   0.64639   -2.000
 7098.00    0.69468   0.64700   -2.000
 7099.00    0.68674   0.64708   -2.000
 7100.00    0.67876   0.64682   -2.000
 7101.00    0.67041   0.64763   -2.000
 7102.00    0.66254   0.64880   -2.000
 7103.00    0.65777   0.64849   -2.000
 7104.00    0.65448   0.64872   -2.000
 7105.00    0.65878   0.65041   -2.000
 7106.00    0.66183   0.65065   -2.000
 7107.00    0.65975   0.64995   -2.000
 7108.00    0.65444   0.65089   -2.000
 7109.00    0.63815   0.65219   -2.000
 7110.00    0.63714   0.65170   -2.000
 7111.00    0.68003   0.65109   -2.000
 7112.00    0.70222   0.65234   -2.000
 7113.00    0.67362   0.65279   -2.000
 7114.00    0.65685   0.65121   -2.000
 7115.00    0.66513   0.65069   -2.000
 7116.00    0.67738   0.65155   -2.000
 7117.00    0.69694   0.65100   -2.000
 7118.00    0.71517   0.64898   -2.000
 7119.00    0.73126   0.64873   -2.000
 7120.00    0.74609   0.64913   -2.000
 7121.00    0.75917   0.64710   -2.000
 7122.00    0.75633   0.64510   -2.000
 7123.00    0.73374   0.64523   -2.000
 7124.00    0.71536   0.64480   -2.000
 7125.00    0.70158   0.64243   -2.000
 7126.00    0.69607   0.64140   -2.000
 7127.00    0.69855   0.64167   -2.000
 7128.00    0.71331   0.64026   -2.000
 7129.00    0.73852   0.63866   -2.000
 7130.00    0.73773   0.63887   -2.000
 7131.00    0.71748   0.63891   -2.000
 7132.00    0.69500   0.63776   -2.000
 7133.00    0.67106   0.63764   -2.000
 7134.00    0.66528   0.63819   -2.000
 7135.00    0.66998   0.63791   -2.000
 7136.00    0.67186   0.63782   -2.000
 7137.00    0.67234   0.63839   -2.000
 7138.00    0.69286   0.63892   -2.000
 7139.00    0.72210   0.63928   -2.000
 7140.00    0.70665   0.63978   -2.000
 7141.00    0.67455   0.64031   -2.000
 7142.00    0.67210   0.64124   -2.000
 7143.00    0.67902   0.64195   -2.000
 7144.00    0.68256   0.64181   -2.000
 7145.00    0.68522   0.64274   -2.000
 7146.00    0.68453   0.64440   -2.000
 7147.00    0.68313   0.64430   -2.000
 7148.00    0.67385   0.64432   -2.000
 7149.00    0.66322   0.64632   -2.000
 7150.00    0.66903   0.64721   -2.000
 7151.00    0.67697   0.64623   -2.000
 7152.00    0.67414   0.64725   -2.000
 7153.00    0.67034   0.64936   -2.000
 7154.00    0.67294   0.64873   -2.000
 7155.00    0.67590   0.64839   -2.000
 7156.00    0.67949   0.65038   -2.000
 7157.00    0.68302   0.65107   -2.000
 7158.00    0.68040   0.65017   -2.000
 7159.00    0.67749   0.65092   -2.000
 7160.00    0.66802   0.65239   -2.000
 7161.00    0.66116   0.65181   -2.000
 7162.00    0.68717   0.65164   -2.000
 7163.00    0.71129   0.65306   -2.000
 7164.00    0.71927   0.65352   -2.000
 7165.00    0.73211   0.65304   -2.000
 7166.00    0.77584   0.65359   -2.000
 7167.00    0.80566   0.65472   -2.000
 7168.00    0.76649   0.65448   -2.000
 7169.00    0.73564   0.65421   -2.000
 7170.00    0.73825   0.65514   -2.000
 7171.00    0.73710   0.65572   -2.000
 7172.00    0.72338   0.65518   -2.000
 7173.00    0.71472   0.65517   -2.000
 7174.00    0.72033   0.65623   -2.000
 7175.00    0.72288   0.65618   -2.000
 7176.00    0.71807   0.65519   -2.000
 7177.00    0.70751   0.65526   -2.000
 7178.00    0.68496   0.65576   -2.000
 7179.00    0.67270   0.65511   -2.000
 7180.00    0.67908   0.65460   -2.000
 7181.00    0.68161   0.65513   -2.000
 7182.00    0.67803   0.65495   -2.000
 7183.00    0.67280   0.65392   -2.000
 7184.00    0.66526   0.65367   -2.000
 7185.00    0.66744   0.65375   -2.000
 7186.00    0.68150   0.65322   -2.000
 7187.00    0.68360   0.65332   -2.000
 7188.00    0.67279   0.65368   -2.000
 7189.00    0.67196   0.65308   -2.000
 7190.00    0.68062   0.65273   -2.000
 7191.00    0.68323   0.65324   -2.000
 7192.00    0.68076   0.65311   -2.000
 7193.00    0.67084   0.65263   -2.000
 7194.00    0.65541   0.65351   -2.000
 7195.00    0.64392   0.65413   -2.000
 7196.00    0.63498   0.65338   -2.000
 7197.00    0.63568   0.65351   -2.000
 7198.00    0.64185   0.65438   -2.000
 7199.00    0.63409   0.65430   -2.000
 7200.00    0.61945   0.65434   -2.000
 7201.00    0.61932   0.65530   -2.000
 7202.00    0.62538   0.65569   -2.000
 7203.00    0.65316   0.65545   -2.000
 7204.00    0.68888   0.65611   -2.000
 7205.00    0.69206   0.65663   -2.000
 7206.00    0.68516   0.65678   -2.000
 7207.00    0.65594   0.65806   -2.000
 7208.00    0.62097   0.65905   -2.000
 7209.00    0.62734   0.65914   -2.000
 7210.00    0.64242   0.65993   -2.000
 7211.00    0.63629   0.66134   -2.000
 7212.00    0.62663   0.66175   -2.000
 7213.00    0.62192   0.66251   -2.000
 7214.00    0.61783   0.66483   -2.000
 7215.00    0.62688   0.66594   -2.000
 7216.00    0.63708   0.66630   -2.000
 7217.00    0.64258   0.66795   -2.000
 7218.00    0.64784   0.66955   -2.000
