###################################################################
## OUTPUT of StarlightChains_v04.for    [Cid@UFSC - 01/Apr/2007] ##
###################################################################

## Some input info
KUG0210-078._34_35.txt                   [arq_obs]
Base.CB07.vall.4m                        [arq_base]
Masks.EmLines.NEW.gm                     [arq_masks]
StCv04.C11.config                        [arq_config]
   66                                    [N_base]
    0                                    [N_YAV_components = # of components with extra extinction!]
    0                                    [i_FitPowerLaw (1/0 = Yes/No)]
-9.99                                    [alpha_PowerLaw]
CCM                                      [red_law_option]
 1.458241                                [q_norm = A(l_norm)/A(V)]

## (Re)Sampling Parameters
 3741.00                                 [l_ini (A)]
 7218.00                                 [l_fin (A)]
    1.00                                 [dl    (A)]     (OBS: dl_cushion =    50.00 A)

## Normalization info
 4020.00                                 [l_norm (A) - for base]
 4010.00                                 [llow_norm (A) - window for f_obs]
 4060.00                                 [lupp_norm (A) - window for f_obs]
4.341862E-17                             [fobs_norm (in input units)]

## S/N
 3691.00                                 [llow_SN (A) - window for S/N]
 7268.00                                 [lupp_SN (A) - window for S/N]
   4.036                                 [S/N in S/N window]
   2.658                                 [S/N in norm. window]
   0.094                                 [S/N_err in S/N window]
   0.062                                 [S/N_err in norm. window]
  1.0000                                 [fscale_chi2]

## etc...
    -2007540                             [idum_orig]
  2432                                   [NOl_eff]
  2424                                   [Nl_eff]
     8    NSIGMA                         [Ntot_cliped & clip_method]
  5149060                                [Nglobal_steps]
   7                                     [N_chains]
  34                                     [NEX0s_base = N_base in EX0s-fits]
 0   0   1        8   2.0   5.036E+03    [Clip-Bug, RC-Crash & Burn-In warning-flags, n_censored_weights, wei_nsig_threshold & wei_limit]
    87     87.033     86.508      0.525  [idt_all, wdt_TotTime, wdt_UsrTime & wdt_SysTime (sec)]

## Synthesis Results - Best model ##

 2.78706E-05                             [chi2/Nl_eff]
     3.73691                             [adev (%)]

   113.46661                             [sum-of-x (%)]
 4.20734E-17                             [Flux_tot (units of input spectrum!)]
 4.60878E-12                             [Mini_tot (???)]
 2.32682E-12                             [Mcor_tot (???)]

 -77.56                                  [v0_min  (km/s)]
 231.50                                  [vd_min  (km/s)]
-0.1175                                  [AV_min  (mag)]
 0.0000                                  [YAV_min (mag)]

# j     x_j(%)      Mini_j(%)     Mcor_j(%)     age_j(yr)     Z_j      (L/M)_j    YAV?  Mstars   component_j        a/Fe...       SSP_chi2r SSP_adev(%)   SSP_AV   SSP_x(%)
  1      0.0000     0.0000E+00    0.0000E+00    1.000000E+06  0.00400  1.094E-02    0   1.0000   age020_m42            0.0000     2.4430E-04    11.5824   4.0000    96.8108
  2      0.0000     0.0000E+00    0.0000E+00    3.160000E+06  0.00400  4.007E-02    0   0.9999   age045_m42            0.0000     1.8133E-04    10.7768   3.4117    99.2550
  3      0.0000     0.0000E+00    0.0000E+00    5.010000E+06  0.00400  2.539E-02    0   0.9488   age055_m42            0.0000     2.0416E-04    11.2612   3.7465    96.2101
  4      0.0000     0.0000E+00    0.0000E+00    6.610000E+06  0.00400  2.620E-02    0   0.9220   age061_m42            0.0000     1.8406E-04    10.8676   3.3363    99.4870
  5      0.0000     0.0000E+00    0.0000E+00    1.000000E+07  0.00400  1.322E-02    0   0.8862   age070_m42            0.0000     2.2360E-04    12.4308   3.0634   100.8184
  6      0.0000     0.0000E+00    0.0000E+00    1.445000E+07  0.00400  7.883E-03    0   0.8571   age078_m42            0.0000     2.3330E-04    12.5337   3.3961    98.0435
  7      0.0000     0.0000E+00    0.0000E+00    2.512000E+07  0.00400  5.251E-03    0   0.8174   age090_m42            0.0000     2.2895E-04    12.6853   2.9334   101.3297
  8      0.0000     0.0000E+00    0.0000E+00    4.000000E+07  0.00400  3.649E-03    0   0.7851   age104_m42            0.0000     2.1398E-04    12.2975   2.6991   102.5447
  9      0.0000     0.0000E+00    0.0000E+00    5.500000E+07  0.00400  3.098E-03    0   0.7629   age110_m42            0.0000     1.9032E-04    11.4328   2.8434   103.1269
 10      0.0000     0.0000E+00    0.0000E+00    1.015200E+08  0.00400  2.228E-03    0   0.7207   age116_m42            0.0000     1.7587E-04    10.8545   2.8558   103.7631
 11      3.0687     2.2588E-02    2.9744E-02    2.861200E+08  0.00400  1.093E-03    0   0.6648   age125_m42            0.0000     1.8362E-04    11.3676   2.2706   107.1358
 12      0.0000     0.0000E+00    0.0000E+00    5.088000E+08  0.00400  6.597E-04    0   0.6365   age130_m42            0.0000     1.5549E-04    10.3250   2.2528   108.6743
 13      0.0000     0.0000E+00    0.0000E+00    1.434000E+09  0.00400  2.132E-04    0   0.5798   age139_m42            0.0000     1.1070E-04     8.8781   1.2785   111.3458
 14      0.0000     0.0000E+00    0.0000E+00    4.250000E+09  0.00400  5.895E-05    0   0.5377   age158_m42            0.0000     8.5557E-05     7.5370   0.8458   107.0528
 15      0.0000     0.0000E+00    0.0000E+00    7.500000E+09  0.00400  3.510E-05    0   0.5212   age171_m42            0.0000     7.5267E-05     6.9829   0.6537   106.6017
 16      0.0000     0.0000E+00    0.0000E+00    1.300000E+10  0.00400  2.005E-05    0   0.5034   age193_m42            0.0000     6.9114E-05     6.5605   0.4846   106.2280
 17      0.0000     0.0000E+00    0.0000E+00    1.800000E+10  0.00400  1.525E-05    0   0.4967   age213_m42            0.0000     7.2188E-05     6.7085   0.4632   105.6674
 18      0.0000     0.0000E+00    0.0000E+00    1.000000E+06  0.00800  1.238E-02    0   1.0000   age020_m52            0.0000     2.4318E-04    11.5596   4.0000    96.9019
 19      0.0000     0.0000E+00    0.0000E+00    3.160000E+06  0.00800  3.074E-02    0   0.9966   age045_m52            0.0000     2.2801E-04    11.3639   4.0000    95.4736
 20      0.0000     0.0000E+00    0.0000E+00    5.010000E+06  0.00800  2.668E-02    0   0.9443   age055_m52            0.0000     2.1089E-04    11.4083   3.8337    95.1674
 21      0.0000     0.0000E+00    0.0000E+00    6.610000E+06  0.00800  2.136E-02    0   0.9177   age061_m52            0.0000     2.0658E-04    11.9691   2.5707   101.8425
 22      0.0000     0.0000E+00    0.0000E+00    1.000000E+07  0.00800  1.215E-02    0   0.8827   age070_m52            0.0000     2.4618E-04    13.0990   3.2454   100.2621
 23      0.0000     0.0000E+00    0.0000E+00    1.445000E+07  0.00800  8.717E-03    0   0.8552   age078_m52            0.0000     2.2912E-04    12.4677   3.3591    99.5076
 24      0.0000     0.0000E+00    0.0000E+00    2.512000E+07  0.00800  5.592E-03    0   0.8162   age090_m52            0.0000     2.2974E-04    12.7273   2.9919   102.6672
 25      0.0000     0.0000E+00    0.0000E+00    4.000000E+07  0.00800  3.896E-03    0   0.7841   age104_m52            0.0000     2.1179E-04    12.2264   2.8950   103.9217
 26      0.0000     0.0000E+00    0.0000E+00    1.015200E+08  0.00800  2.148E-03    0   0.7226   age116_m52            0.0000     1.8338E-04    11.2358   2.8242   104.3972
 27      0.0000     0.0000E+00    0.0000E+00    2.861200E+08  0.00800  9.925E-04    0   0.6683   age125_m52            0.0000     1.5371E-04    10.2578   2.3149   109.8091
 28      6.1209     1.5678E-01    1.9061E-01    9.047900E+08  0.00800  3.141E-04    0   0.6138   age135_m52            0.0000     9.9846E-05     8.3205   1.4982   115.5564
 29      0.0000     0.0000E+00    0.0000E+00    1.434000E+09  0.00800  1.719E-04    0   0.5853   age139_m52            0.0000     9.0333E-05     7.9374   0.9236   112.9428
 30      0.0000     0.0000E+00    0.0000E+00    2.500000E+09  0.00800  7.872E-05    0   0.5600   age150_m52            0.0000     6.3576E-05     6.4279   0.6594   110.2551
 31      0.0000     0.0000E+00    0.0000E+00    4.250000E+09  0.00800  4.336E-05    0   0.5426   age158_m52            0.0000     6.4288E-05     6.4702   0.6467   109.1344
 32      0.0000     0.0000E+00    0.0000E+00    6.250000E+09  0.00800  3.159E-05    0   0.5319   age166_m52            0.0000     5.1289E-05     5.6360   0.4347   109.7258
 33      8.1742     4.8322E+00    4.8555E+00    1.300000E+10  0.00800  1.361E-05    0   0.5073   age193_m52            0.0000     3.8849E-05     4.6585  -0.0442   109.7153
 34      0.0000     0.0000E+00    0.0000E+00    1.800000E+10  0.00800  9.886E-06    0   0.4990   age213_m52            0.0000     3.3130E-05     4.1756  -0.1633   109.8155
 35      0.0000     0.0000E+00    0.0000E+00    1.000000E+06  0.02000  1.544E-02    0   1.0000   age020_m62            0.0000     2.4407E-04    11.5681   4.0000    97.0054
 36      0.0000     0.0000E+00    0.0000E+00    3.160000E+06  0.02000  3.762E-02    0   0.9858   age045_m62            0.0000     2.3486E-04    11.4554   4.0000    96.0041
 37      0.0000     0.0000E+00    0.0000E+00    5.010000E+06  0.02000  3.296E-02    0   0.9342   age055_m62            0.0000     1.9076E-04    10.8482   3.6985    97.7893
 38      0.0000     0.0000E+00    0.0000E+00    8.710000E+06  0.02000  1.154E-02    0   0.8861   age067_m62            0.0000     3.8233E-04    16.9805   2.7118   101.2655
 39      0.0000     0.0000E+00    0.0000E+00    1.445000E+07  0.02000  7.663E-03    0   0.8472   age078_m62            0.0000     2.7858E-04    14.2087   2.8891   102.2046
 40      0.0000     0.0000E+00    0.0000E+00    2.512000E+07  0.02000  4.532E-03    0   0.8099   age090_m62            0.0000     2.8538E-04    14.4213   2.8772   101.9828
 41      0.0000     0.0000E+00    0.0000E+00    5.500000E+07  0.02000  2.733E-03    0   0.7595   age110_m62            0.0000     2.1387E-04    12.2410   2.8809   103.0479
 42      0.0000     0.0000E+00    0.0000E+00    1.609000E+08  0.02000  1.369E-03    0   0.6985   age120_m62            0.0000     1.7364E-04    10.8854   2.6954   107.2241
 43      0.0000     0.0000E+00    0.0000E+00    2.861200E+08  0.02000  9.013E-04    0   0.6714   age125_m62            0.0000     1.5075E-04    10.1339   2.4301   111.1900
 44      0.0000     0.0000E+00    0.0000E+00    5.088000E+08  0.02000  5.028E-04    0   0.6449   age130_m62            0.0000     1.1019E-04     8.6003   2.0354   115.2660
 45      0.0000     0.0000E+00    0.0000E+00    9.047900E+08  0.02000  2.428E-04    0   0.6179   age135_m62            0.0000     7.8279E-05     7.2909   1.4471   114.8456
 46      0.0000     0.0000E+00    0.0000E+00    1.434000E+09  0.02000  1.263E-04    0   0.5908   age139_m62            0.0000     6.6945E-05     6.6874   1.0081   113.0733
 47      0.5245     7.0507E-02    7.9226E-02    2.500000E+09  0.02000  5.985E-05    0   0.5673   age150_m62            0.0000     5.0772E-05     5.5937   0.6382   111.9735
 48      9.8113     2.4132E+00    2.6137E+00    4.250000E+09  0.02000  3.271E-05    0   0.5468   age158_m62            0.0000     3.5737E-05     4.4221   0.3203   111.8690
 49      7.5888     4.4894E+00    4.5946E+00    1.000000E+10  0.02000  1.360E-05    0   0.5167   age181_m62            0.0000     2.9037E-05     3.7668  -0.0484   112.5611
 50     24.8847     2.8104E+01    2.7905E+01    1.800000E+10  0.02000  7.124E-06    0   0.5013   age213_m62            0.0000     3.1402E-05     3.8245  -0.2751   112.5615
 51      0.0000     0.0000E+00    0.0000E+00    1.000000E+06  0.05000  2.592E-02    0   0.9998   age020_m72            0.0000     2.4889E-04    11.6729   4.0000    96.7520
 52      0.0000     0.0000E+00    0.0000E+00    3.160000E+06  0.05000  4.845E-02    0   0.9577   age045_m72            0.0000     2.1224E-04    11.2849   3.9726    94.5813
 53      0.0000     0.0000E+00    0.0000E+00    5.010000E+06  0.05000  3.072E-02    0   0.9147   age055_m72            0.0000     2.6757E-04    13.4654   3.4715    98.5286
 54      0.0000     0.0000E+00    0.0000E+00    6.610000E+06  0.05000  1.455E-02    0   0.8877   age061_m72            0.0000     5.1113E-04    20.0639   2.7206   101.9617
 55      0.0000     0.0000E+00    0.0000E+00    1.000000E+07  0.05000  9.074E-03    0   0.8524   age070_m72            0.0000     3.0038E-04    14.1497   3.6245    98.6733
 56      0.0000     0.0000E+00    0.0000E+00    2.512000E+07  0.05000  4.250E-03    0   0.7902   age090_m72            0.0000     2.6191E-04    13.4724   3.3304   100.8425
 57      0.0000     0.0000E+00    0.0000E+00    4.000000E+07  0.05000  3.087E-03    0   0.7618   age104_m72            0.0000     2.6121E-04    13.6084   3.0977   102.6918
 58      0.0000     0.0000E+00    0.0000E+00    1.015200E+08  0.05000  1.700E-03    0   0.7096   age116_m72            0.0000     1.9480E-04    11.6049   2.8375   106.5248
 59      2.2300     2.4298E-02    3.1923E-02    2.861200E+08  0.05000  7.384E-04    0   0.6633   age125_m72            0.0000     1.2806E-04     9.2990   2.2875   113.3929
 60      0.0000     0.0000E+00    0.0000E+00    5.088000E+08  0.05000  3.819E-04    0   0.6372   age130_m72            0.0000     8.5865E-05     7.5469   1.7892   115.9329
 61      1.7392     8.3490E-02    1.0104E-01    9.047900E+08  0.05000  1.676E-04    0   0.6110   age135_m72            0.0000     5.2031E-05     5.6756   1.0930   114.3579
 62      0.0000     0.0000E+00    0.0000E+00    1.434000E+09  0.05000  8.837E-05    0   0.5874   age139_m72            0.0000     4.7719E-05     5.3381   0.6281   114.0737
 63      0.1634     3.1048E-02    3.4426E-02    2.500000E+09  0.05000  4.233E-05    0   0.5598   age150_m72            0.0000     3.2132E-05     4.1163   0.3122   113.2562
 64      7.1117     3.9873E+00    4.1455E+00    6.250000E+09  0.05000  1.435E-05    0   0.5249   age166_m72            0.0000     2.8140E-05     3.6744  -0.1517   112.4460
 65     34.9596     4.3186E+01    4.3077E+01    1.300000E+10  0.05000  6.513E-06    0   0.5036   age193_m72            0.0000     3.5431E-05     4.0793  -0.4498   114.4721
 66      7.0898     1.2600E+01    1.2341E+01    1.800000E+10  0.05000  4.527E-06    0   0.4945   age213_m72            0.0000     4.4598E-05     4.6117  -0.6219   114.7791


## Synthesis Results - Average & Chains ##

# j      x_j: min, <> & last-chain-values for 1 ...  7 chains
  1      0.0000      1.4042      0.4066      0.1910      0.2446      0.3953      0.0000      0.1913      0.2592
  2      0.0000      1.5124      0.2816      0.1092      0.2329      0.0000      0.1616      0.1235      0.2441
  3      0.0000      1.2578      0.0711      0.0282      0.0148      0.0000      0.0097      0.0000      0.0565
  4      0.0000      1.2158      0.1602      0.1177      0.1181      0.4531      0.1660      0.1672      0.1464
  5      0.0000      1.1834      0.4055      0.0588      0.0675      0.4592      0.0000      0.0761      0.1206
  6      0.0000      1.5110      0.0590      0.3485      0.1496      0.1599      0.5432      0.1232      0.7949
  7      0.0000      1.4933      0.0639      0.0943      0.0474      0.0000      0.0155      0.0857      0.0605
  8      0.0000      1.3154      0.1816      0.0112      0.0933      0.0000      0.0008      0.0386      0.0000
  9      0.0000      1.4632      0.0000      0.0894      0.2293      0.2344      0.1560      0.2193      0.2348
 10      0.0000      1.4646      0.2950      0.1124      0.1066      0.0000      0.1224      0.1023      0.1394
 11      3.0687      1.2086      0.1605      0.0000      0.1440      0.8543      0.0840      0.0000      0.0095
 12      0.0000      1.4239      0.0000      0.0672      0.0000      0.0000      0.0000      0.0000      0.0000
 13      0.0000      1.3545      0.1490      0.0535      0.1330      0.2233      0.0790      0.1357      0.1455
 14      0.0000      1.4537      0.0866      0.1851      0.0493      0.3888      0.0296      0.0240      0.0778
 15      0.0000      1.3562      0.1952      0.0490      0.0091      0.1863      0.0033      0.0705      0.0000
 16      0.0000      1.7196      0.1472      0.0000      0.0039      0.1884      0.0000      0.0121      0.0394
 17      0.0000      1.5943      0.0432      0.0702      0.0581      0.1924      0.0666      0.0000      0.0000
 18      0.0000      1.6403      0.8071      3.2799      3.6135      3.0147      0.8119      3.5926      3.5743
 19      0.0000      1.0201      0.0000      0.0166      0.0364      0.0000      0.0375      0.1575      0.0484
 20      0.0000      1.5027      0.1510      0.1268      0.0138      0.3962      0.0000      0.0195      0.0224
 21      0.0000      1.4313      0.0832      0.0863      0.1103      0.0000      0.0514      0.1135      0.0680
 22      0.0000      1.0856      0.2080      0.2619      0.3284      0.0381      0.3170      0.3455      0.3745
 23      0.0000      1.3158      0.2358      0.1637      0.2383      0.2741      0.1664      0.2164      0.1811
 24      0.0000      1.0580      0.1113      0.4315      0.2630      0.2616      0.2964      0.4233      0.3019
 25      0.0000      1.2528      0.3031      0.0000      0.1720      0.0000      0.0995      0.1244      0.1447
 26      0.0000      1.0995      0.1149      0.1577      0.1716      0.0000      1.5823      0.2145      0.1958
 27      0.0000      1.3671      0.2413      0.7317      0.9567      0.9107      0.8922      0.9708      0.9926
 28      6.1209      1.7531      0.2045      1.2989      1.4785      1.0789      1.3348      1.4976      1.4242
 29      0.0000      1.3504      0.0750      0.0356      0.0000      0.2163      0.0175      0.0662      0.0023
 30      0.0000      1.2461      0.0719      0.2808      0.0195      0.0000      0.0575      0.0530      0.0494
 31      0.0000      1.7811      0.0673      0.1683      0.0099      0.2117      0.0445      0.0751      0.0776
 32      0.0000      1.3841      0.0296      0.0493      0.0454      1.2983      0.0153      0.0717      0.0320
 33      8.1742      2.7072      8.5468      8.5125      8.5569      8.4712      8.2379      8.4007      8.4348
 34      0.0000      1.9458      0.7838      3.5139      3.6656      3.2364      3.5351      3.5278      3.6502
 35      0.0000      1.5692      0.0000      0.4553      0.6373      0.4198      0.5113      0.5228      0.0000
 36      0.0000      1.5124      0.2446      0.1505      0.0767      0.0000      0.1104      0.1573      0.1183
 37      0.0000      1.8297      0.0725      0.0784      0.0511      0.1919      0.1410      0.1460      0.1494
 38      0.0000      1.4367      0.1253      0.0873      0.0736      0.2212      0.0888      0.1424      0.1142
 39      0.0000      1.6699      0.0000      0.0861      0.0751      0.1059      0.0418      0.1144      0.1516
 40      0.0000      1.3491      0.2509      0.1847      0.2617      0.3885      0.2135      0.1756      0.1053
 41      0.0000      1.3836      0.5739      0.2316      0.0000      0.3245      0.3221      0.4418      0.3254
 42      0.0000      1.5850      0.5222      0.5283      0.6770      0.7994      0.6244      0.6673      0.6398
 43      0.0000      2.0550      0.0583      0.0000      0.0000      0.0000      0.0447      0.0847      0.0661
 44      0.0000      1.6512      0.0665      0.0269      0.0037      0.0939      0.0358      0.0273      0.0756
 45      0.0000      0.8521      0.0000      0.1643      0.0803      0.0000      0.0836      0.1227      0.0836
 46      0.0000      1.4866      0.0000      0.3721      0.3106      0.2358      3.4209      0.1818      0.0000
 47      0.5245      1.8479      0.6456      1.0887      0.9008      0.8533      0.0000      1.0072      1.0432
 48      9.8113      1.2047      0.5111      0.6466      0.6245      0.5293      0.5640      0.8419      0.8246
 49      7.5888      1.7112      0.7960      1.4461      1.2518      1.0913      1.4676      1.3304      1.4277
 50     24.8847      3.4435     17.6680     13.7554     13.5647     13.1954     15.3047     13.4096     13.4376
 51      0.0000      1.3183      0.1113      0.6025      0.8637      0.7010      0.8120      0.8545      0.9028
 52      0.0000      1.2718      0.3527      0.2308      0.2212      0.3485      0.1637      0.2513      0.1592
 53      0.0000      0.9881      0.0395      0.0241      0.0821      0.0827      0.0106      0.0401      0.0103
 54      0.0000      0.8833      0.0000      0.0000      0.0183      0.0000      0.0000      0.0424      0.0623
 55      0.0000      1.4027      0.1899      0.2655      0.1340      0.2742      0.0563      0.1173      0.0946
 56      0.0000      1.3370      0.0542      0.1200      0.0435      0.1347      0.0000      0.0089      0.0000
 57      0.0000      1.2448      0.0385      0.0711      0.0911      0.0000      0.0021      0.0000      0.0510
 58      0.0000      1.2517      0.1039      0.0351      0.0486      0.4824      0.0078      0.0338      0.0000
 59      2.2300      1.1546      0.2686      0.1766      0.1844      0.2266      0.2076      0.2498      0.2086
 60      0.0000      1.1174      0.0777      0.3734      0.0956      0.1685      0.0195      0.1416      0.0797
 61      1.7392      1.9307      0.1520      4.1296      4.3445      3.6829      4.1865      4.4371      4.2982
 62      0.0000      1.2884      0.3780      2.5764      2.4730      1.8344      2.2993      2.4463      2.4090
 63      0.1634      1.6597      0.2932      5.4275      5.9128      4.7873      5.7416      5.8345      5.8940
 64      7.1117      5.0632     29.3518     22.2414     22.1570     21.6991     21.0934     21.8349     22.0148
 65     34.9596      4.7732     29.9957     22.9141     22.5172     22.3140     21.5657     22.3595     22.5115
 66      7.0898      1.9859      4.9993      4.3386      4.2621      4.7779      4.1846      4.3217      4.2743

# j      m_j: min, <> & last-chain-values for 1 ...  7 chains
  1  0.0000E+00  8.1618E-03  6.6292E-04  3.6996E-04  4.7936E-04  7.7782E-04  0.0000E+00  3.7767E-04  5.0905E-04
  2  0.0000E+00  2.3998E-03  1.2535E-04  5.7724E-05  1.2463E-04  0.0000E+00  8.6607E-05  6.6588E-05  1.3088E-04
  3  0.0000E+00  2.9887E-03  4.7380E-05  2.2294E-05  1.1823E-05  0.0000E+00  7.7579E-06  0.0000E+00  4.5373E-05
  4  0.0000E+00  2.7205E-03  1.0057E-04  8.7774E-05  8.9129E-05  3.4326E-04  1.2547E-04  1.2707E-04  1.1074E-04
  5  0.0000E+00  5.0444E-03  4.8485E-04  8.3542E-05  9.6999E-05  6.6261E-04  0.0000E+00  1.1024E-04  1.7372E-04
  6  0.0000E+00  1.0446E-02  1.1441E-04  8.0308E-04  3.4889E-04  3.7415E-04  1.2687E-03  2.8944E-04  1.8571E-03
  7  0.0000E+00  1.4781E-02  1.7731E-04  3.1112E-04  1.5812E-04  0.0000E+00  5.1932E-05  2.8814E-04  2.0231E-04
  8  0.0000E+00  1.7997E-02  6.9681E-04  5.0969E-05  4.3041E-04  0.0000E+00  3.5150E-06  1.7954E-04  0.0000E+00
  9  0.0000E+00  2.2912E-02  0.0000E+00  4.6630E-04  1.2110E-03  1.2423E-03  8.2516E-04  1.1667E-03  1.2425E-03
 10  0.0000E+00  3.0125E-02  1.7022E-03  7.7026E-04  7.3950E-04  0.0000E+00  8.5049E-04  7.1513E-04  9.6924E-04
 11  2.9744E-02  4.6743E-02  1.7416E-03  0.0000E+00  1.8777E-03  1.1186E-02  1.0976E-03  0.0000E+00  1.2396E-04
 12  0.0000E+00  8.7356E-02  0.0000E+00  1.3735E-03  0.0000E+00  0.0000E+00  0.0000E+00  0.0000E+00  0.0000E+00
 13  0.0000E+00  2.3423E-01  7.2278E-03  3.0846E-03  7.7564E-03  1.3070E-02  4.6135E-03  7.9739E-03  8.5047E-03
 14  0.0000E+00  8.4318E-01  1.4084E-02  3.5783E-02  9.6345E-03  7.6334E-02  5.8088E-03  4.7352E-03  1.5244E-02
 15  0.0000E+00  1.2806E+00  5.1704E-02  1.5434E-02  2.8853E-03  5.9543E-02  1.0442E-03  2.2610E-02  0.0000E+00
 16  0.0000E+00  2.7454E+00  6.5935E-02  0.0000E+00  2.1238E-03  1.0181E-01  0.0000E+00  6.5380E-03  2.1233E-02
 17  0.0000E+00  3.3020E+00  2.5083E-02  4.8427E-02  4.0558E-02  1.3489E-01  4.6617E-02  0.0000E+00  0.0000E+00
 18  0.0000E+00  8.4251E-03  1.1629E-03  5.6143E-03  6.2590E-03  5.2419E-03  1.4087E-03  6.2684E-03  6.2038E-03
 19  0.0000E+00  2.1030E-03  0.0000E+00  1.1429E-05  2.5274E-05  0.0000E+00  2.6145E-05  1.1029E-04  3.3734E-05
 20  0.0000E+00  3.3819E-03  9.5364E-05  9.5088E-05  1.0508E-05  3.0188E-04  0.0000E+00  1.4885E-05  1.7046E-05
 21  0.0000E+00  3.9104E-03  6.3776E-05  7.8552E-05  1.0166E-04  0.0000E+00  4.7445E-05  1.0536E-04  6.2791E-05
 22  0.0000E+00  5.0149E-03  2.6954E-04  4.0325E-04  5.1153E-04  5.9586E-05  4.9475E-04  5.4222E-04  5.8466E-04
 23  0.0000E+00  8.2084E-03  4.1259E-04  3.4033E-04  5.0126E-04  5.7879E-04  3.5063E-04  4.5869E-04  3.8181E-04
 24  0.0000E+00  9.8197E-03  2.8974E-04  1.3346E-03  8.2318E-04  8.2209E-04  9.2936E-04  1.3346E-03  9.4683E-04
 25  0.0000E+00  1.6033E-02  1.0881E-03  0.0000E+00  7.4249E-04  0.0000E+00  4.2995E-04  5.4082E-04  6.2561E-04
 26  0.0000E+00  2.3519E-02  6.8961E-04  1.1245E-03  1.2376E-03  0.0000E+00  1.1434E-02  1.5584E-03  1.4155E-03
 27  0.0000E+00  5.8536E-02  2.8981E-03  1.0440E-02  1.3813E-02  1.3201E-02  1.2905E-02  1.4120E-02  1.4362E-02
 28  1.9061E-01  2.1784E-01  7.1285E-03  5.3788E-02  6.1954E-02  4.5384E-02  5.6031E-02  6.3216E-02  5.9802E-02
 29  0.0000E+00  2.9238E-01  4.5562E-03  2.5690E-03  0.0000E+00  1.5852E-02  1.2797E-03  4.8721E-03  1.6495E-04
 30  0.0000E+00  5.6367E-01  9.1229E-03  4.2331E-02  2.9766E-03  0.0000E+00  8.7841E-03  8.1502E-03  7.5536E-03
 31  0.0000E+00  1.4173E+00  1.5024E-02  4.4627E-02  2.6628E-03  5.7017E-02  1.1974E-02  2.0303E-02  2.0873E-02
 32  0.0000E+00  1.4819E+00  8.8773E-03  1.7597E-02  1.6393E-02  4.7056E-01  5.5183E-03  2.6080E-02  1.1586E-02
 33  4.8555E+00  6.4165E+00  5.6829E+00  6.7239E+00  6.8395E+00  6.7970E+00  6.5957E+00  6.7638E+00  6.7556E+00
 34  0.0000E+00  6.2454E+00  7.0571E-01  3.7586E+00  3.9676E+00  3.5165E+00  3.8328E+00  3.8464E+00  3.9589E+00
 35  0.0000E+00  6.4626E-03  0.0000E+00  6.2484E-04  8.8505E-04  5.8531E-04  7.1136E-04  7.3137E-04  0.0000E+00
 36  0.0000E+00  2.5200E-03  1.1435E-04  8.3589E-05  4.3104E-05  0.0000E+00  6.2141E-05  8.9044E-05  6.6590E-05
 37  0.0000E+00  3.2976E-03  3.6647E-05  4.7097E-05  3.1087E-05  1.1711E-04  8.5841E-05  8.9412E-05  9.0997E-05
 38  0.0000E+00  7.0149E-03  1.7159E-04  1.4203E-04  1.2126E-04  3.6562E-04  1.4646E-04  2.3623E-04  1.8837E-04
 39  0.0000E+00  1.1739E-02  0.0000E+00  2.0170E-04  1.7805E-04  2.5212E-04  9.9194E-05  2.7326E-04  3.6025E-04
 40  0.0000E+00  1.5330E-02  7.9978E-04  6.9941E-04  1.0028E-03  1.4945E-03  8.1966E-04  6.7785E-04  4.0446E-04
 41  0.0000E+00  2.4450E-02  2.8449E-03  1.3637E-03  0.0000E+00  1.9415E-03  1.9225E-03  2.6519E-03  1.9428E-03
 42  0.0000E+00  5.1424E-02  4.7534E-03  5.7123E-03  7.4069E-03  8.7799E-03  6.8430E-03  7.3549E-03  7.0149E-03
 43  0.0000E+00  9.7343E-02  7.7518E-04  0.0000E+00  0.0000E+00  0.0000E+00  7.1551E-04  1.3635E-03  1.0576E-03
 44  0.0000E+00  1.3467E-01  1.5219E-03  7.3124E-04  1.0120E-04  2.5932E-03  9.8495E-04  7.5522E-04  2.0830E-03
 45  0.0000E+00  1.3789E-01  0.0000E+00  8.8601E-03  4.3840E-03  0.0000E+00  4.5704E-03  6.7446E-03  4.5695E-03
 46  0.0000E+00  4.4220E-01  0.0000E+00  3.6880E-02  3.1157E-02  2.3747E-02  3.4373E-01  1.8374E-02  0.0000E+00
 47  7.9226E-02  1.1138E+00  1.0917E-01  2.1868E-01  1.8310E-01  1.7410E-01  0.0000E+00  2.0622E-01  2.1247E-01
 48  2.6137E+00  1.2806E+00  1.5241E-01  2.2906E-01  2.2385E-01  1.9047E-01  2.0251E-01  3.0400E-01  2.9620E-01
 49  4.5946E+00  4.1341E+00  5.3944E-01  1.1643E+00  1.0199E+00  8.9251E-01  1.1977E+00  1.0918E+00  1.1655E+00
 50  2.7905E+01  1.5408E+01  2.2178E+01  2.0512E+01  2.0468E+01  1.9988E+01  2.3133E+01  2.0382E+01  2.0318E+01
 51  0.0000E+00  3.2334E-03  7.6593E-05  4.9247E-04  7.1437E-04  5.8206E-04  6.7275E-04  7.1199E-04  7.4828E-04
 52  0.0000E+00  1.5985E-03  1.2436E-04  9.6669E-05  9.3744E-05  1.4830E-04  6.9526E-05  1.0732E-04  6.7617E-05
 53  0.0000E+00  1.8709E-03  2.0959E-05  1.5229E-05  5.2394E-05  5.3034E-05  6.8010E-06  2.5771E-05  6.6062E-06
 54  0.0000E+00  3.4269E-03  0.0000E+00  0.0000E+00  2.3999E-05  0.0000E+00  0.0000E+00  5.5820E-05  8.1681E-05
 55  0.0000E+00  8.3787E-03  3.1820E-04  5.2855E-04  2.7002E-04  5.5450E-04  1.1360E-04  2.3800E-04  1.9091E-04
 56  0.0000E+00  1.5807E-02  1.7967E-04  4.7281E-04  1.7362E-04  5.3905E-04  0.0000E+00  3.5837E-05  0.0000E+00
 57  0.0000E+00  1.9534E-02  1.6932E-04  3.7184E-04  4.8233E-04  0.0000E+00  1.1151E-05  0.0000E+00  2.7026E-04
 58  0.0000E+00  3.3222E-02  7.7329E-04  3.1004E-04  4.3535E-04  4.3343E-03  6.9547E-05  3.0503E-04  0.0000E+00
 59  3.1923E-02  6.5952E-02  4.3039E-03  3.3626E-03  3.5529E-03  4.3823E-03  4.0050E-03  4.8465E-03  4.0260E-03
 60  0.0000E+00  1.1855E-01  2.3139E-03  1.3203E-02  3.4205E-03  6.0531E-03  7.0043E-04  5.1032E-03  2.8571E-03
 61  1.0104E-01  4.4756E-01  9.8829E-03  3.1903E-01  3.3963E-01  2.8902E-01  3.2784E-01  3.4941E-01  3.3669E-01
 62  0.0000E+00  5.4456E-01  4.4816E-02  3.6292E-01  3.5249E-01  2.6247E-01  3.2829E-01  3.5124E-01  3.4408E-01
 63  3.4426E-02  1.3956E+00  6.9178E-02  1.5210E+00  1.6768E+00  1.3628E+00  1.6310E+00  1.6667E+00  1.6749E+00
 64  4.1455E+00  1.1777E+01  1.9152E+01  1.7240E+01  1.7379E+01  1.7086E+01  1.6573E+01  1.7252E+01  1.7303E+01
 65  4.3077E+01  2.3469E+01  4.1374E+01  3.7546E+01  3.7335E+01  3.7141E+01  3.5818E+01  3.7345E+01  3.7402E+01
 66  1.2341E+01  1.3794E+01  9.7416E+00  1.0043E+01  9.9834E+00  1.1235E+01  9.8187E+00  1.0197E+01  1.0032E+01

# AV, chi2 & Mass for <> & i_chain = 1 ...  7 solutions
AV      -0.1175      0.2235      0.0563      0.2095      0.2269      0.2450      0.2306      0.2350      0.2286
chi2 2.7871E-05  1.3808E-03  5.2988E-05  5.3505E-05  5.4720E-05  5.6679E-05  5.8820E-05  5.4527E-05  5.4712E-05
Mass 2.3268E-12  9.2183E-13  2.6251E-12  2.7147E-12  2.7461E-12  2.8030E-12  2.7551E-12  2.7560E-12  2.7468E-12
 -77.56                                  [v0_min (km/s) before EX0s...]
 231.50                                  [vd_min (km/s) before EX0s...]


## Synthetic spectrum (Best Model) ##l_obs f_obs f_syn wei
 3478    [Nl_obs]
 3741.00    0.37301   0.46152    0.000
 3742.00    0.33874   0.44509    0.000
 3743.00    0.28518   0.42287    0.000
 3744.00    0.26155   0.39985    0.000
 3745.00    0.25536   0.38095    0.137
 3746.00    0.30288   0.37011    0.133
 3747.00    0.37769   0.36944    0.125
 3748.00    0.40335   0.38188    0.145
 3749.00    0.40741   0.40857    0.198
 3750.00    0.51900   0.44467    0.188
 3751.00    0.67118   0.48214    0.157
 3752.00    0.71006   0.51498    0.138
 3753.00    0.71263   0.53916    0.125
 3754.00    0.66714   0.55032    0.121
 3755.00    0.60876   0.54644    0.118
 3756.00    0.60354   0.53133    0.114
 3757.00    0.60999   0.51400    0.110
 3758.00    0.54998   0.50189    0.122
 3759.00    0.47837   0.49582    0.142
 3760.00    0.46527   0.49322    0.214
 3761.00    0.45994   0.49217    0.478
 3762.00    0.55115   0.49233    0.242
 3763.00    0.65144   0.49519    0.152
 3764.00    0.63261   0.50100    0.132
 3765.00    0.60691   0.50813    0.118
 3766.00    0.55126   0.51864    0.130
 3767.00    0.49516   0.53548    0.145
 3768.00    0.47093   0.55622    0.138
 3769.00    0.44772   0.57707    0.131
 3770.00    0.44944   0.59782    0.128
 3771.00    0.45176   0.61772    0.125
 3772.00    0.46184   0.63406    0.122
 3773.00    0.47562   0.64603    0.119
 3774.00    0.52181   0.65573    0.117
 3775.00    0.55189   0.66542    0.115
 3776.00    0.47747   0.67560    0.121
 3777.00    0.42999   0.68613    0.127
 3778.00    0.51887   0.69710    0.128
 3779.00    0.60032   0.70621    0.130
 3780.00    0.65133   0.70989    0.131
 3781.00    0.68152   0.70678    0.131
 3782.00    0.64108   0.69672    0.124
 3783.00    0.59302   0.67866    0.118
 3784.00    0.52319   0.65178    0.113
 3785.00    0.47751   0.61958    0.110
 3786.00    0.49082   0.58901    0.114
 3787.00    0.48890   0.56351    0.122
 3788.00    0.45488   0.54378    0.137
 3789.00    0.43510   0.53025    0.140
 3790.00    0.44143   0.52104    0.118
 3791.00    0.45248   0.51156    0.109
 3792.00    0.47106   0.49970    0.110
 3793.00    0.48733   0.48728    0.114
 3794.00    0.50037   0.47703    0.120
 3795.00    0.50573   0.47073    0.121
 3796.00    0.50162   0.46870    0.112
 3797.00    0.49620   0.47289    0.116
 3798.00    0.48933   0.48657    0.133
 3799.00    0.49501   0.50913    0.142
 3800.00    0.51274   0.53558    0.138
 3801.00    0.50742   0.56140    0.134
 3802.00    0.48254   0.58388    0.129
 3803.00    0.46328   0.60049    0.126
 3804.00    0.44820   0.61008    0.123
 3805.00    0.47723   0.61366    0.120
 3806.00    0.53519   0.61440    0.116
 3807.00    0.53992   0.61512    0.117
 3808.00    0.51412   0.61424    0.121
 3809.00    0.48662   0.60852    0.125
 3810.00    0.45827   0.59629    0.131
 3811.00    0.39573   0.57725    0.135
 3812.00    0.31840   0.55322    0.139
 3813.00    0.34219   0.52788    0.124
 3814.00    0.40348   0.50396    0.107
 3815.00    0.43759   0.48390    0.105
 3816.00    0.46317   0.46860    0.108
 3817.00    0.43077   0.45486    0.132
 3818.00    0.38316   0.44012    0.180
 3819.00    0.40023   0.42635    0.148
 3820.00    0.43115   0.41642    0.115
 3821.00    0.39079   0.40898    0.108
 3822.00    0.33834   0.39994    0.104
 3823.00    0.34496   0.38836    0.107
 3824.00    0.35917   0.37755    0.111
 3825.00    0.40712   0.36990    0.109
 3826.00    0.45810   0.36504    0.107
 3827.00    0.39226   0.36161    0.125
 3828.00    0.32013   0.35887    0.150
 3829.00    0.28378   0.35616    0.126
 3830.00    0.24858   0.35213    0.108
 3831.00    0.24919   0.34679    0.103
 3832.00    0.25213   0.34247    0.100
 3833.00    0.30672   0.34093    0.101
 3834.00    0.35984   0.34260    0.103
 3835.00    0.39461   0.34652    0.106
 3836.00    0.42371   0.35139    0.112
 3837.00    0.40493   0.35865    0.136
 3838.00    0.38776   0.37083    0.161
 3839.00    0.38062   0.38847    0.128
 3840.00    0.37758   0.41152    0.108
 3841.00    0.39475   0.43825    0.103
 3842.00    0.40676   0.46370    0.101
 3843.00    0.39815   0.48458    0.108
 3844.00    0.38983   0.50021    0.115
 3845.00    0.38247   0.51084    0.121
 3846.00    0.38550   0.51727    0.126
 3847.00    0.41772   0.51909    0.000
 3848.00    0.43547   0.51624    0.000
 3849.00    0.41850   0.51220    0.000
 3850.00    0.40947   0.50998    0.000
 3851.00    0.41693   0.50702    0.000
 3852.00    0.43650   0.50004    0.000
 3853.00    0.47795   0.48990    0.000
 3854.00    0.48314   0.47853    0.000
 3855.00    0.43116   0.46753    0.000
 3856.00    0.40767   0.45895    0.000
 3857.00    0.42363   0.45306    0.000
 3858.00    0.42838   0.45091    0.000
 3859.00    0.41948   0.45579    0.000
 3860.00    0.44096   0.46842    0.000
 3861.00    0.49506   0.48487    0.000
 3862.00    0.54036   0.49929    0.000
 3863.00    0.57731   0.50817    0.000
 3864.00    0.56276   0.51155    0.000
 3865.00    0.50519   0.51085    0.000
 3866.00    0.47311   0.50685    0.000
 3867.00    0.45977   0.50017    0.000
 3868.00    0.48776   0.49249    0.000
 3869.00    0.54244   0.48581    0.000
 3870.00    0.56327   0.48223    0.000
 3871.00    0.56497   0.48308    0.000
 3872.00    0.54664   0.48880    0.000
 3873.00    0.51846   0.49735    0.000
 3874.00    0.50111   0.50358    0.000
 3875.00    0.48837   0.50373    0.000
 3876.00    0.48747   0.49854    0.000
 3877.00    0.49088   0.49199    0.000
 3878.00    0.48554   0.48817    0.000
 3879.00    0.47750   0.48605    0.000
 3880.00    0.42185   0.48252    0.000
 3881.00    0.35397   0.47948    0.119
 3882.00    0.38783   0.48066    0.113
 3883.00    0.44294   0.48372    0.106
 3884.00    0.50850   0.48381    0.120
 3885.00    0.57578   0.48424    0.145
 3886.00    0.56883   0.49219    0.132
 3887.00    0.55270   0.50822    0.117
 3888.00    0.58951   0.52985    0.110
 3889.00    0.63085   0.55592    0.104
 3890.00    0.60245   0.58350    0.114
 3891.00    0.57058   0.60821    0.128
 3892.00    0.50773   0.62649    0.117
 3893.00    0.44601   0.63752    0.108
 3894.00    0.48946   0.64329    0.107
 3895.00    0.53172   0.64764    0.107
 3896.00    0.54956   0.65096    0.109
 3897.00    0.56828   0.65064    0.112
 3898.00    0.59738   0.64805    0.109
 3899.00    0.62746   0.64682    0.107
 3900.00    0.66558   0.64765    0.114
 3901.00    0.70323   0.64714    0.121
 3902.00    0.73799   0.64600    0.123
 3903.00    0.73963   0.64812    0.120
 3904.00    0.58191   0.65345    0.099
 3905.00    0.47192   0.66404    0.088
 3906.00    0.54889   0.68237    0.093
 3907.00    0.60508   0.70480    0.098
 3908.00    0.59350   0.72640    0.099
 3909.00    0.59856   0.74459    0.102
 3910.00    0.64946   0.75868    0.107
 3911.00    0.70391   0.76765    0.111
 3912.00    0.76674   0.76916    0.112
 3913.00    0.82426   0.76275    0.113
 3914.00    0.87095   0.74969    0.115
 3915.00    0.86109   0.73062    0.118
 3916.00    0.75081   0.70815    0.122
 3917.00    0.69538   0.68426    0.123
 3918.00    0.72518   0.65910    0.118
 3919.00    0.72571   0.63448    0.114
 3920.00    0.68629   0.61324    0.112
 3921.00    0.64086   0.59577    0.111
 3922.00    0.58819   0.57965    0.112
 3923.00    0.57730   0.56192    0.112
 3924.00    0.61067   0.53898    0.111
 3925.00    0.57871   0.50962    0.111
 3926.00    0.48574   0.47508    0.111
 3927.00    0.46748   0.43704    0.110
 3928.00    0.51075   0.39869    0.108
 3929.00    0.52976   0.36325    0.108
 3930.00    0.53118   0.33365    0.111
 3931.00    0.48764   0.31284    0.112
 3932.00    0.41550   0.30303    0.112
 3933.00    0.40957   0.30532    0.113
 3934.00    0.44048   0.31944    0.113
 3935.00    0.41189   0.34385    0.109
 3936.00    0.35448   0.37528    0.103
 3937.00    0.42455   0.40990    0.102
 3938.00    0.54791   0.44468    0.104
 3939.00    0.62922   0.47730    0.110
 3940.00    0.69548   0.50636    0.120
 3941.00    0.67838   0.53208    0.118
 3942.00    0.63609   0.55522    0.114
 3943.00    0.61443   0.57882    0.112
 3944.00    0.59795   0.60688    0.110
 3945.00    0.61786   0.63697    0.109
 3946.00    0.64519   0.66312    0.108
 3947.00    0.61945   0.68563    0.109
 3948.00    0.58521   0.70819    0.110
 3949.00    0.73178   0.72948    0.116
 3950.00    0.89993   0.74428    0.123
 3951.00    0.86094   0.75058    0.124
 3952.00    0.80508   0.75323    0.125
 3953.00    0.78417   0.75470    0.122
 3954.00    0.76487   0.74867    0.119
 3955.00    0.81280   0.73182    0.115
 3956.00    0.85942   0.70902    0.112
 3957.00    0.79228   0.68333    0.116
 3958.00    0.72726   0.65206    0.120
 3959.00    0.70220   0.61133    0.117
 3960.00    0.67219   0.56276    0.000
 3961.00    0.58652   0.51405    0.000
 3962.00    0.50587   0.46953    0.000
 3963.00    0.46465   0.42781    0.000
 3964.00    0.42310   0.38846    0.000
 3965.00    0.37952   0.35453    0.000
 3966.00    0.34276   0.33044    0.000
 3967.00    0.33801   0.31906    0.000
 3968.00    0.34437   0.32150    0.000
 3969.00    0.39332   0.33815    0.000
 3970.00    0.43317   0.36796    0.000
 3971.00    0.44398   0.40855    0.000
 3972.00    0.49114   0.45720    0.000
 3973.00    0.63678   0.51148    0.000
 3974.00    0.75632   0.56839    0.000
 3975.00    0.81525   0.62343    0.000
 3976.00    0.84629   0.67419    0.000
 3977.00    0.82129   0.72019    0.000
 3978.00    0.83010   0.76029    0.000
 3979.00    0.89802   0.79317    0.000
 3980.00    0.93439   0.81753    0.000
 3981.00    0.92247   0.83564    0.119
 3982.00    0.91467   0.85191    0.120
 3983.00    0.91242   0.86756    0.116
 3984.00    0.92634   0.88268    0.114
 3985.00    0.95939   0.89684    0.114
 3986.00    0.98251   0.91081    0.114
 3987.00    0.99525   0.92510    0.115
 3988.00    0.99837   0.93556    0.116
 3989.00    0.99261   0.94200    0.117
 3990.00    1.02989   0.94777    0.119
 3991.00    1.10210   0.95223    0.121
 3992.00    1.09055   0.95414    0.120
 3993.00    1.01917   0.95400    0.117
 3994.00    0.96114   0.95399    0.114
 3995.00    0.91149   0.95572    0.111
 3996.00    0.86204   0.96016    0.110
 3997.00    0.81268   0.96933    0.110
 3998.00    0.82560   0.98234    0.110
 3999.00    0.86817   0.99277    0.110
 4000.00    0.96143   0.99702    0.114
 4001.00    1.07552   0.99816    0.119
 4002.00    1.13837   0.99675    0.120
 4003.00    1.18322   0.98935    0.120
 4004.00    1.11793   0.97843    0.121
 4005.00    1.02000   0.97439    0.123
 4006.00    0.94584   0.98188    0.119
 4007.00    0.87753   0.99540    0.114
 4008.00    0.95453   1.00958    0.116
 4009.00    1.06044   1.02447    0.119
 4010.00    1.11247   1.04038    0.119
 4011.00    1.15613   1.05469    0.120
 4012.00    1.07138   1.06618    0.115
 4013.00    0.97187   1.07543    0.111
 4014.00    0.88763   1.08324    0.111
 4015.00    0.80457   1.08813    0.111
 4016.00    0.89856   1.08917    0.116
 4017.00    1.00000   1.09033    0.122
 4018.00    1.03112   1.09266    0.122
 4019.00    1.06081   1.09224    0.121
 4020.00    1.05638   1.08895    0.117
 4021.00    1.05307   1.08627    0.114
 4022.00    1.06949   1.08526    0.112
 4023.00    1.08575   1.08289    0.112
 4024.00    1.10039   1.07761    0.114
 4025.00    1.11125   1.07048    0.116
 4026.00    1.09347   1.06014    0.114
 4027.00    1.06719   1.04369    0.114
 4028.00    0.99191   1.01895    0.120
 4029.00    0.93203   0.98821    0.125
 4030.00    0.94273   0.96203    0.119
 4031.00    0.94800   0.94844    0.114
 4032.00    0.93290   0.94703    0.111
 4033.00    0.92339   0.95727    0.109
 4034.00    0.93147   0.97864    0.108
 4035.00    0.94411   1.00820    0.108
 4036.00    0.96892   1.03905    0.109
 4037.00    0.99857   1.06131    0.111
 4038.00    1.03926   1.06842    0.115
 4039.00    1.06861   1.05954    0.117
 4040.00    1.07553   1.03989    0.117
 4041.00    1.04986   1.01641    0.115
 4042.00    0.96803   0.98952    0.112
 4043.00    0.93166   0.95966    0.111
 4044.00    0.96387   0.93611    0.110
 4045.00    0.96044   0.93130    0.111
 4046.00    0.90978   0.94774    0.113
 4047.00    0.93980   0.97394    0.115
 4048.00    1.06403   0.99902    0.119
 4049.00    1.13856   1.02093    0.122
 4050.00    1.16193   1.03769    0.123
 4051.00    1.14696   1.04466    0.120
 4052.00    1.09719   1.04042    0.116
 4053.00    1.06719   1.02836    0.113
 4054.00    1.05302   1.01431    0.112
 4055.00    0.99426   1.00165    0.112
 4056.00    0.90410   0.98749    0.112
 4057.00    0.91772   0.97156    0.112
 4058.00    0.99543   0.95899    0.114
 4059.00    1.00686   0.95143    0.117
 4060.00    0.98252   0.94351    0.121
 4061.00    0.99445   0.92997    0.120
 4062.00    1.02337   0.91632    0.117
 4063.00    1.02711   0.91506    0.116
 4064.00    1.02067   0.92731    0.115
 4065.00    0.98937   0.93996    0.115
 4066.00    0.94949   0.94803    0.116
 4067.00    0.91081   0.95958    0.115
 4068.00    0.87248   0.97528    0.114
 4069.00    0.89408   0.98319    0.114
 4070.00    0.93008   0.97742    0.114
 4071.00    0.98648   0.96914    0.116
 4072.00    1.04683   0.96847    0.118
 4073.00    1.04310   0.96954    0.116
 4074.00    1.02972   0.96625    0.113
 4075.00    1.00662   0.96285    0.114
 4076.00    0.98244   0.96699    0.115
 4077.00    0.94835   0.98162    0.114
 4078.00    0.91353   1.00307    0.113
 4079.00    0.87523   1.02709    0.113
 4080.00    0.83679   1.05080    0.114
 4081.00    0.94479   1.07093    0.116
 4082.00    1.05295   1.08774    0.118
 4083.00    1.13626   1.10376    0.117
 4084.00    1.21500   1.11936    0.116
 4085.00    1.21861   1.13442    0.117
 4086.00    1.21399   1.14874    0.117
 4087.00    1.12472   1.16042    0.116
 4088.00    1.04721   1.16639    0.114
 4089.00    1.05603   1.16391    0.112
 4090.00    1.06966   1.15268    0.111
 4091.00    1.11030   1.13451    0.109
 4092.00    1.13965   1.11276    0.000
 4093.00    1.11847   1.08750    0.000
 4094.00    1.10002   1.05550    0.000
 4095.00    1.09159   1.02004    0.000
 4096.00    1.06925   0.98822    0.000
 4097.00    1.00417   0.96332    0.000
 4098.00    0.95033   0.94374    0.000
 4099.00    0.92590   0.92737    0.000
 4100.00    0.90902   0.91843    0.000
 4101.00    0.90909   0.92329    0.000
 4102.00    0.90194   0.93988    0.000
 4103.00    0.88077   0.96070    0.000
 4104.00    0.90057   0.98230    0.000
 4105.00    0.98990   1.00388    0.000
 4106.00    1.06786   1.02229    0.000
 4107.00    1.12892   1.03531    0.000
 4108.00    1.16616   1.04371    0.000
 4109.00    1.17227   1.04970    0.000
 4110.00    1.15523   1.05554    0.000
 4111.00    1.11154   1.06261    0.000
 4112.00    1.08774   1.07085    0.000
 4113.00    1.08413   1.07723    0.105
 4114.00    1.11013   1.08062    0.106
 4115.00    1.16262   1.08283    0.108
 4116.00    1.16544   1.08211    0.110
 4117.00    1.12906   1.07598    0.110
 4118.00    1.08162   1.06875    0.108
 4119.00    1.02651   1.06689    0.105
 4120.00    0.97840   1.06805    0.104
 4121.00    0.93454   1.06713    0.104
 4122.00    0.98330   1.06529    0.106
 4123.00    1.08125   1.06574    0.108
 4124.00    1.11176   1.06593    0.110
 4125.00    1.11116   1.05957    0.111
 4126.00    1.09905   1.04628    0.112
 4127.00    1.08237   1.03018    0.113
 4128.00    0.98016   1.01496    0.110
 4129.00    0.84901   1.00130    0.107
 4130.00    0.89130   0.99008    0.108
 4131.00    0.98295   0.98377    0.110
 4132.00    0.96569   0.98570    0.108
 4133.00    0.92285   0.99634    0.106
 4134.00    0.97300   1.01352    0.107
 4135.00    1.04070   1.03208    0.109
 4136.00    1.04741   1.04449    0.111
 4137.00    1.04521   1.04821    0.114
 4138.00    1.11318   1.04371    0.114
 4139.00    1.18860   1.03331    0.114
 4140.00    1.13638   1.01843    0.110
 4141.00    1.07534   0.99821    0.106
 4142.00    1.13940   0.97785    0.111
 4143.00    1.20778   0.96726    0.116
 4144.00    1.12871   0.96857    0.114
 4145.00    1.05182   0.97429    0.112
 4146.00    1.05667   0.97932    0.114
 4147.00    1.05692   0.98360    0.115
 4148.00    0.98606   0.98644    0.111
 4149.00    0.92609   0.98649    0.107
 4150.00    0.97346   0.98493    0.110
 4151.00    1.00051   0.98247    0.112
 4152.00    0.88328   0.98056    0.110
 4153.00    0.79706   0.98178    0.109
 4154.00    0.88015   0.98821    0.109
 4155.00    0.95972   0.99866    0.109
 4156.00    1.02393   1.01229    0.109
 4157.00    1.06002   1.03106    0.109
 4158.00    0.99494   1.05161    0.109
 4159.00    0.94534   1.06794    0.108
 4160.00    0.94242   1.07932    0.104
 4161.00    0.95749   1.08792    0.102
 4162.00    1.01875   1.09094    0.104
 4163.00    1.07766   1.08605    0.106
 4164.00    1.13138   1.07734    0.105
 4165.00    1.15319   1.06692    0.104
 4166.00    1.11387   1.05266    0.103
 4167.00    1.09766   1.03596    0.102
 4168.00    1.12009   1.02134    0.103
 4169.00    1.10005   1.00818    0.103
 4170.00    1.01780   0.99270    0.100
 4171.00    0.95002   0.97523    0.098
 4172.00    0.90089   0.96187    0.099
 4173.00    0.90518   0.95655    0.102
 4174.00    0.97011   0.95706    0.107
 4175.00    1.03187   0.95976    0.108
 4176.00    1.09045   0.96335    0.105
 4177.00    1.11906   0.96996    0.104
 4178.00    1.12123   0.98108    0.105
 4179.00    1.12743   0.99347    0.104
 4180.00    1.13677   1.00352    0.100
 4181.00    1.10665   1.01024    0.099
 4182.00    1.04954   1.01563    0.100
 4183.00    1.01660   1.02306    0.099
 4184.00    0.99813   1.03156    0.098
 4185.00    1.01873   1.03464    0.098
 4186.00    1.05976   1.03173    0.100
 4187.00    1.13686   1.03366    0.100
 4188.00    1.23032   1.04361    0.100
 4189.00    1.23784   1.05035    0.100
 4190.00    1.21183   1.04816    0.101
 4191.00    1.16968   1.04448    0.101
 4192.00    1.12218   1.04217    0.100
 4193.00    1.12242   1.03232    0.099
 4194.00    1.13598   1.01317    0.098
 4195.00    1.10788   0.99342    0.098
 4196.00    1.07022   0.97689    0.098
 4197.00    1.03159   0.96292    0.099
 4198.00    0.99278   0.95582    0.100
 4199.00    1.00107   0.95831    0.099
 4200.00    1.01602   0.96634    0.097
 4201.00    1.03588   0.97940    0.096
 4202.00    1.05623   1.00073    0.096
 4203.00    1.02818   1.02710    0.095
 4204.00    0.99697   1.05114    0.094
 4205.00    1.01879   1.07134    0.095
 4206.00    1.04227   1.08976    0.095
 4207.00    1.08759   1.10471    0.097
 4208.00    1.13026   1.11123    0.100
 4209.00    1.09509   1.10897    0.098
 4210.00    1.06501   1.10290    0.097
 4211.00    1.10900   1.09832    0.097
 4212.00    1.14230   1.09648    0.097
 4213.00    1.07441   1.09486    0.098
 4214.00    1.01723   1.09450    0.100
 4215.00    1.03374   1.10229    0.098
 4216.00    1.06356   1.11892    0.098
 4217.00    1.16417   1.13187    0.098
 4218.00    1.23813   1.13242    0.099
 4219.00    1.19830   1.12239    0.100
 4220.00    1.14926   1.10118    0.100
 4221.00    1.06778   1.06366    0.098
 4222.00    0.99123   1.01586    0.097
 4223.00    0.92930   0.97243    0.098
 4224.00    0.89544   0.93857    0.098
 4225.00    0.93239   0.91512    0.097
 4226.00    0.97216   0.91083    0.096
 4227.00    1.01805   0.92998    0.098
 4228.00    1.07352   0.96164    0.099
 4229.00    1.14704   0.99518    0.098
 4230.00    1.16451   1.02633    0.096
 4231.00    1.08970   1.04930    0.093
 4232.00    1.05791   1.06275    0.093
 4233.00    1.08823   1.07154    0.096
 4234.00    1.09588   1.07670    0.097
 4235.00    1.07477   1.07925    0.096
 4236.00    1.08484   1.08718    0.095
 4237.00    1.12980   1.10222    0.093
 4238.00    1.15657   1.11953    0.093
 4239.00    1.16540   1.14068    0.095
 4240.00    1.11366   1.16592    0.094
 4241.00    1.00921   1.18606    0.091
 4242.00    1.06331   1.19628    0.091
 4243.00    1.23894   1.20156    0.094
 4244.00    1.21630   1.19952    0.095
 4245.00    1.06004   1.18234    0.094
 4246.00    1.00629   1.15566    0.095
 4247.00    1.01306   1.13156    0.096
 4248.00    1.05221   1.10930    0.099
 4249.00    1.10801   1.08386    0.102
 4250.00    1.14220   1.06461    0.102
 4251.00    1.16673   1.06098    0.101
 4252.00    1.17474   1.06399    0.100
 4253.00    1.17640   1.06269    0.100
 4254.00    1.13467   1.06252    0.097
 4255.00    1.07879   1.07032    0.094
 4256.00    0.99511   1.08066    0.093
 4257.00    0.90385   1.08762    0.092
 4258.00    0.96181   1.09458    0.094
 4259.00    1.05322   1.10628    0.097
 4260.00    1.14729   1.12481    0.097
 4261.00    1.24185   1.14986    0.096
 4262.00    1.18366   1.17349    0.096
 4263.00    1.10457   1.18769    0.097
 4264.00    1.18621   1.19254    0.097
 4265.00    1.28356   1.18646    0.097
 4266.00    1.19000   1.16226    0.095
 4267.00    1.08477   1.12398    0.094
 4268.00    1.03965   1.08445    0.093
 4269.00    0.99601   1.04546    0.093
 4270.00    0.92387   1.00739    0.091
 4271.00    0.85487   0.98439    0.089
 4272.00    0.86896   0.98528    0.090
 4273.00    0.88956   0.99957    0.092
 4274.00    0.99970   1.01951    0.093
 4275.00    1.09796   1.04812    0.093
 4276.00    1.08836   1.08244    0.094
 4277.00    1.08238   1.11174    0.094
 4278.00    1.10053   1.12989    0.095
 4279.00    1.12170   1.13813    0.095
 4280.00    1.15852   1.13981    0.095
 4281.00    1.18424   1.13622    0.094
 4282.00    1.16361   1.12819   -2.000
 4283.00    1.11671   1.11609   -2.000
 4284.00    0.97913   1.09765   -2.000
 4285.00    0.89498   1.07614   -2.000
 4286.00    0.96617   1.05936   -2.000
 4287.00    1.04788   1.04710   -2.000
 4288.00    1.15566   1.03376   -2.000
 4289.00    1.19603   1.02201   -2.000
 4290.00    1.09229   1.01961   -2.000
 4291.00    1.00842   1.02444   -2.000
 4292.00    0.96146   1.02594   -2.000
 4293.00    0.94470   1.01771   -2.000
 4294.00    0.97691   1.00287   -2.000
 4295.00    1.00634   0.98425   -2.000
 4296.00    1.03181   0.96008   -2.000
 4297.00    0.99843   0.92949   -2.000
 4298.00    0.89137   0.89617    0.092
 4299.00    0.85062   0.86817    0.092
 4300.00    0.88300   0.84909    0.092
 4301.00    0.92595   0.83362    0.092
 4302.00    0.97918   0.81872    0.092
 4303.00    0.93445   0.80801    0.091
 4304.00    0.80567   0.80235    0.089
 4305.00    0.80589   0.80014    0.089
 4306.00    0.90358   0.80272    0.090
 4307.00    0.95701   0.81429    0.090
 4308.00    0.98105   0.83966    0.091
 4309.00    0.98250   0.87922    0.092
 4310.00    0.97082   0.93080    0.093
 4311.00    1.00439   0.99474    0.092
 4312.00    1.06090   1.06739    0.090
 4313.00    1.12647   1.13857    0.089
 4314.00    1.19601   1.20426    0.089
 4315.00    1.25881   1.26393    0.090
 4316.00    1.31906   1.30713    0.091
 4317.00    1.33377   1.32596    0.091
 4318.00    1.33391   1.32410    0.091
 4319.00    1.33765   1.30496    0.093
 4320.00    1.34236   1.26946    0.094
 4321.00    1.26647   1.22652    0.094
 4322.00    1.17294   1.18715    0.094
 4323.00    1.17399   1.15818    0.094
 4324.00    1.19149   1.14332    0.094
 4325.00    1.20736   1.14628    0.094
 4326.00    1.22301   1.17021    0.095
 4327.00    1.28700   1.20998    0.095
 4328.00    1.35550   1.25160    0.095
 4329.00    1.33579   1.28587    0.094
 4330.00    1.31103   1.31517    0.000
 4331.00    1.26934   1.33665    0.000
 4332.00    1.22805   1.33864    0.000
 4333.00    1.27823   1.32136    0.000
 4334.00    1.32460   1.29610    0.000
 4335.00    1.27941   1.26273    0.000
 4336.00    1.23834   1.21900    0.000
 4337.00    1.25082   1.18050    0.000
 4338.00    1.25684   1.15773    0.000
 4339.00    1.20635   1.14441    0.000
 4340.00    1.17436   1.14469    0.000
 4341.00    1.26177   1.16672    0.000
 4342.00    1.32592   1.19733    0.000
 4343.00    1.27272   1.22524    0.000
 4344.00    1.22744   1.25762    0.000
 4345.00    1.21446   1.28916    0.000
 4346.00    1.20991   1.30280    0.000
 4347.00    1.23387   1.30255    0.000
 4348.00    1.23845   1.30329    0.000
 4349.00    1.18771   1.29989    0.000
 4350.00    1.16929   1.28361    0.000
 4351.00    1.22962   1.26891    0.094
 4352.00    1.24287   1.27159    0.094
 4353.00    1.15709   1.28220    0.094
 4354.00    1.13847   1.28875    0.094
 4355.00    1.24265   1.30032    0.094
 4356.00    1.32449   1.32391    0.094
 4357.00    1.37064   1.34682    0.094
 4358.00    1.39160   1.36081    0.094
 4359.00    1.37724   1.37633    0.093
 4360.00    1.36464   1.39876    0.093
 4361.00    1.35422   1.41618    0.093
 4362.00    1.34839   1.42120    0.094
 4363.00    1.34754   1.42270    0.096
 4364.00    1.37806   1.42484    0.096
 4365.00    1.43866   1.41786    0.096
 4366.00    1.43981   1.39867    0.096
 4367.00    1.39068   1.37850    0.095
 4368.00    1.34829   1.36219    0.095
 4369.00    1.31094   1.34239    0.094
 4370.00    1.33854   1.31907    0.095
 4371.00    1.40866   1.30087    0.096
 4372.00    1.39185   1.28912    0.096
 4373.00    1.32527   1.27854    0.096
 4374.00    1.30134   1.26839    0.096
 4375.00    1.29869   1.26114    0.096
 4376.00    1.27654   1.25522    0.096
 4377.00    1.24598   1.24363    0.095
 4378.00    1.22192   1.21920    0.095
 4379.00    1.20028   1.18452    0.095
 4380.00    1.13901   1.15065    0.095
 4381.00    1.06532   1.12079    0.094
 4382.00    1.11077   1.09150    0.094
 4383.00    1.18739   1.07128    0.095
 4384.00    1.12315   1.07314    0.092
 4385.00    1.02883   1.09188    0.089
 4386.00    1.08887   1.11339    0.090
 4387.00    1.17502   1.13782    0.091
 4388.00    1.23995   1.16903    0.091
 4389.00    1.30218   1.19935    0.091
 4390.00    1.31142   1.22279    0.092
 4391.00    1.31593   1.24522    0.093
 4392.00    1.27853   1.26988    0.092
 4393.00    1.23891   1.29074    0.091
 4394.00    1.33307   1.30580    0.093
 4395.00    1.42812   1.31838    0.095
 4396.00    1.38234   1.32557    0.092
 4397.00    1.33981   1.32411    0.090
 4398.00    1.36872   1.31499    0.092
 4399.00    1.39191   1.29443    0.094
 4400.00    1.34447   1.26512    0.092
 4401.00    1.30142   1.24163    0.091
 4402.00    1.29536   1.22355    0.092
 4403.00    1.28684   1.20008    0.092
 4404.00    1.26296   1.18521    0.091
 4405.00    1.24644   1.19656    0.090
 4406.00    1.26612   1.21903    0.091
 4407.00    1.28849   1.23786    0.092
 4408.00    1.32165   1.26505    0.092
 4409.00    1.33965   1.30070    0.092
 4410.00    1.30741   1.32416    0.090
 4411.00    1.31032   1.33499    0.090
 4412.00    1.41168   1.34642    0.091
 4413.00    1.46073   1.35255    0.091
 4414.00    1.38440   1.35005    0.090
 4415.00    1.33954   1.35389    0.090
 4416.00    1.35979   1.36548    0.090
 4417.00    1.36747   1.37257    0.091
 4418.00    1.35253   1.37675    0.091
 4419.00    1.35189   1.38489    0.091
 4420.00    1.37377   1.39036    0.089
 4421.00    1.38497   1.38685    0.088
 4422.00    1.38141   1.38111    0.088
 4423.00    1.36155   1.38005    0.088
 4424.00    1.32186   1.38001    0.087
 4425.00    1.31287   1.37533    0.087
 4426.00    1.33681   1.36929    0.088
 4427.00    1.40166   1.36898    0.089
 4428.00    1.50520   1.36885    0.090
 4429.00    1.51590   1.35991    0.090
 4430.00    1.44917   1.34924    0.090
 4431.00    1.42279   1.34592    0.090
 4432.00    1.42602   1.34527    0.089
 4433.00    1.42149   1.34340    0.090
 4434.00    1.41194   1.34700    0.090
 4435.00    1.38241   1.35945    0.089
 4436.00    1.34162   1.37429    0.088
 4437.00    1.36987   1.38632    0.089
 4438.00    1.43202   1.39603    0.091
 4439.00    1.46006   1.40401    0.092
 4440.00    1.47362   1.41080    0.092
 4441.00    1.47782   1.41794    0.092
 4442.00    1.47861   1.42513    0.091
 4443.00    1.46826   1.43385    0.090
 4444.00    1.45447   1.44875    0.090
 4445.00    1.48410   1.46315    0.090
 4446.00    1.52484   1.46803    0.091
 4447.00    1.53224   1.47004    0.090
 4448.00    1.53269   1.47017    0.090
 4449.00    1.49836   1.45667    0.089
 4450.00    1.45832   1.43093    0.089
 4451.00    1.45490   1.40442    0.088
 4452.00    1.45599   1.37783    0.088
 4453.00    1.40098   1.34600    0.086
 4454.00    1.34119   1.31408    0.083
 4455.00    1.34896   1.29196    0.084
 4456.00    1.36006   1.27890    0.085
 4457.00    1.31950   1.26706    0.085
 4458.00    1.27889   1.26127    0.085
 4459.00    1.28681   1.27105    0.086
 4460.00    1.29490   1.28574    0.086
 4461.00    1.30628   1.29760    0.000
 4462.00    1.31426   1.31721    0.000
 4463.00    1.28242   1.34299    0.000
 4464.00    1.26178   1.36148    0.000
 4465.00    1.33206   1.37539    0.000
 4466.00    1.39800   1.39486    0.000
 4467.00    1.43754   1.41431    0.000
 4468.00    1.46827   1.42932    0.000
 4469.00    1.45666   1.44833    0.000
 4470.00    1.44635   1.47237    0.000
 4471.00    1.44108   1.49422    0.000
 4472.00    1.44616   1.51451    0.000
 4473.00    1.48493   1.53503    0.000
 4474.00    1.52653   1.54780    0.000
 4475.00    1.57590   1.55018    0.000
 4476.00    1.59660   1.54811    0.000
 4477.00    1.54972   1.54142    0.000
 4478.00    1.51296   1.52840    0.000
 4479.00    1.49680   1.51684    0.000
 4480.00    1.47189   1.51166    0.000
 4481.00    1.43146   1.51068    0.000
 4482.00    1.41645   1.51450    0.084
 4483.00    1.44085   1.52185    0.084
 4484.00    1.47090   1.52727    0.084
 4485.00    1.50863   1.52859    0.084
 4486.00    1.51810   1.52681    0.084
 4487.00    1.49372   1.52073    0.084
 4488.00    1.49823   1.51021    0.084
 4489.00    1.53331   1.49769    0.084
 4490.00    1.53719   1.48543    0.084
 4491.00    1.51199   1.47736    0.084
 4492.00    1.47814   1.47367    0.083
 4493.00    1.43718   1.47222    0.082
 4494.00    1.43025   1.47740    0.082
 4495.00    1.44794   1.49179    0.082
 4496.00    1.46101   1.51028    0.083
 4497.00    1.47114   1.52876    0.084
 4498.00    1.50033   1.55328    0.084
 4499.00    1.54010   1.58392    0.084
 4500.00    1.54384   1.61005    0.084
 4501.00    1.53017   1.63202    0.083
 4502.00    1.54830   1.65523    0.083
 4503.00    1.57970   1.67386    0.083
 4504.00    1.57822   1.68249    0.082
 4505.00    1.56501   1.68669    0.081
 4506.00    1.56227   1.68885    0.081
 4507.00    1.56269   1.68415    0.081
 4508.00    1.54831   1.67335    0.081
 4509.00    1.53022   1.66086    0.082
 4510.00    1.52526   1.64660    0.083
 4511.00    1.52297   1.63145    0.083
 4512.00    1.55852   1.61853    0.084
 4513.00    1.60010   1.60695    0.085
 4514.00    1.58054   1.59732    0.084
 4515.00    1.55372   1.59351    0.083
 4516.00    1.53315   1.59295    0.083
 4517.00    1.51310   1.59170    0.083
 4518.00    1.50423   1.58842    0.082
 4519.00    1.49588   1.58295    0.081
 4520.00    1.45811   1.57353    0.081
 4521.00    1.42099   1.55416    0.081
 4522.00    1.43535   1.52612    0.081
 4523.00    1.44936   1.49618    0.081
 4524.00    1.45662   1.46481    0.081
 4525.00    1.45898   1.43163    0.081
 4526.00    1.40631   1.40295    0.081
 4527.00    1.35992   1.38279    0.081
 4528.00    1.36271   1.37190    0.081
 4529.00    1.36258   1.36897    0.080
 4530.00    1.34516   1.37180    0.081
 4531.00    1.33275   1.38113    0.081
 4532.00    1.34377   1.39903    0.081
 4533.00    1.35295   1.42254    0.081
 4534.00    1.35511   1.44380    0.080
 4535.00    1.36443   1.46593    0.080
 4536.00    1.39657   1.49063    0.081
 4537.00    1.43121   1.50988    0.082
 4538.00    1.47263   1.52294    0.082
 4539.00    1.51533   1.53408    0.082
 4540.00    1.56096   1.53964    0.081
 4541.00    1.58272   1.53819    0.081
 4542.00    1.55663   1.53677    0.081
 4543.00    1.51201   1.53403    0.082
 4544.00    1.43504   1.52640    0.082
 4545.00    1.38827   1.51830    0.081
 4546.00    1.38766   1.51493    0.081
 4547.00    1.41637   1.51233    0.081
 4548.00    1.48444   1.50533    0.082
 4549.00    1.53047   1.50208    0.082
 4550.00    1.55044   1.50585    0.000
 4551.00    1.55797   1.50957    0.000
 4552.00    1.55255   1.51550    0.000
 4553.00    1.53406   1.52983    0.000
 4554.00    1.50355   1.54770    0.000
 4555.00    1.50875   1.56540    0.000
 4556.00    1.54289   1.58429    0.000
 4557.00    1.54598   1.60206    0.000
 4558.00    1.52692   1.61536    0.000
 4559.00    1.55672   1.62140    0.000
 4560.00    1.61709   1.62164    0.000
 4561.00    1.64134   1.61911    0.000
 4562.00    1.64582   1.61536    0.000
 4563.00    1.61089   1.61206    0.000
 4564.00    1.55721   1.60947    0.000
 4565.00    1.54865   1.61081    0.000
 4566.00    1.55859   1.61684    0.000
 4567.00    1.57047   1.61913    0.000
 4568.00    1.58305   1.62088    0.000
 4569.00    1.58945   1.62971    0.000
 4570.00    1.59402   1.63359    0.000
 4571.00    1.61429   1.62961    0.000
 4572.00    1.63839   1.63072    0.000
 4573.00    1.61707   1.63124    0.000
 4574.00    1.58675   1.62148    0.000
 4575.00    1.61157   1.60946    0.000
 4576.00    1.64493   1.59815    0.000
 4577.00    1.58295   1.58282    0.000
 4578.00    1.51006   1.56730    0.000
 4579.00    1.47613   1.55400    0.000
 4580.00    1.44518   1.54399    0.000
 4581.00    1.50156   1.54053    0.000
 4582.00    1.56157   1.54115    0.000
 4583.00    1.57229   1.54580    0.000
 4584.00    1.58172   1.55581    0.000
 4585.00    1.55423   1.56723    0.000
 4586.00    1.52826   1.57689    0.000
 4587.00    1.52870   1.58394    0.000
 4588.00    1.52936   1.58718    0.000
 4589.00    1.53242   1.58638    0.000
 4590.00    1.53476   1.58070    0.000
 4591.00    1.53168   1.57075    0.000
 4592.00    1.52836   1.56154    0.000
 4593.00    1.52358   1.55255    0.000
 4594.00    1.51410   1.54357    0.000
 4595.00    1.48312   1.53995    0.000
 4596.00    1.47121   1.53815    0.000
 4597.00    1.53066   1.53713    0.000
 4598.00    1.57965   1.54144    0.000
 4599.00    1.59590   1.54681    0.000
 4600.00    1.60456   1.55178    0.000
 4601.00    1.59306   1.56113    0.000
 4602.00    1.57557   1.57454    0.000
 4603.00    1.54444   1.58887    0.000
 4604.00    1.54162   1.60702    0.000
 4605.00    1.59465   1.62851    0.000
 4606.00    1.63416   1.64752    0.000
 4607.00    1.65039   1.66506    0.000
 4608.00    1.65174   1.68138    0.000
 4609.00    1.63067   1.69096    0.000
 4610.00    1.63886   1.69672    0.000
 4611.00    1.68576   1.70265    0.000
 4612.00    1.70713   1.70332    0.000
 4613.00    1.69877   1.70359    0.000
 4614.00    1.70082   1.70793    0.000
 4615.00    1.71358   1.70802    0.000
 4616.00    1.71688   1.70816    0.000
 4617.00    1.71160   1.71432    0.000
 4618.00    1.69199   1.71492    0.000
 4619.00    1.66093   1.71189    0.000
 4620.00    1.66540   1.71557    0.000
 4621.00    1.69483   1.71573    0.000
 4622.00    1.67294   1.70920    0.000
 4623.00    1.61940   1.70838    0.000
 4624.00    1.58096   1.70908    0.000
 4625.00    1.55065   1.70218    0.000
 4626.00    1.56855   1.69691    0.000
 4627.00    1.60902   1.69738    0.000
 4628.00    1.60500   1.69218    0.000
 4629.00    1.58306   1.68168    0.000
 4630.00    1.60912   1.67478    0.000
 4631.00    1.65170   1.66673    0.000
 4632.00    1.65508   1.65165    0.000
 4633.00    1.64710   1.63514    0.000
 4634.00    1.60240   1.62216    0.000
 4635.00    1.54889   1.60839    0.000
 4636.00    1.54845   1.59190    0.000
 4637.00    1.55826   1.58051    0.000
 4638.00    1.53875   1.57341    0.000
 4639.00    1.51484   1.56232    0.000
 4640.00    1.51207   1.55179    0.000
 4641.00    1.51163   1.54508    0.000
 4642.00    1.52498   1.53365    0.000
 4643.00    1.53933   1.52024    0.000
 4644.00    1.56431   1.51293    0.000
 4645.00    1.58969   1.50785    0.000
 4646.00    1.56424   1.50535    0.000
 4647.00    1.54086   1.51030    0.000
 4648.00    1.60398   1.52102    0.000
 4649.00    1.66186   1.53468    0.000
 4650.00    1.63417   1.54907    0.000
 4651.00    1.60486   1.56403    0.000
 4652.00    1.55891   1.57986    0.000
 4653.00    1.52332   1.59402    0.000
 4654.00    1.56340   1.60729    0.000
 4655.00    1.60319   1.62194    0.000
 4656.00    1.64136   1.63476    0.000
 4657.00    1.67211   1.64351    0.000
 4658.00    1.66981   1.64829    0.000
 4659.00    1.65430   1.64430    0.000
 4660.00    1.59041   1.63065    0.000
 4661.00    1.53651   1.61140    0.000
 4662.00    1.51329   1.58506    0.000
 4663.00    1.49797   1.55377    0.000
 4664.00    1.50324   1.52744    0.000
 4665.00    1.50388   1.50800    0.000
 4666.00    1.49417   1.49370    0.000
 4667.00    1.49217   1.49044    0.000
 4668.00    1.50515   1.49904    0.000
 4669.00    1.52140   1.51327    0.000
 4670.00    1.54321   1.53040    0.000
 4671.00    1.53920   1.54923    0.000
 4672.00    1.49687   1.56698    0.000
 4673.00    1.50838   1.57978    0.000
 4674.00    1.59011   1.58594    0.000
 4675.00    1.62971   1.58860    0.000
 4676.00    1.62088   1.58881    0.000
 4677.00    1.60595   1.58370    0.000
 4678.00    1.58484   1.57716    0.000
 4679.00    1.55012   1.57499    0.000
 4680.00    1.50323   1.57308    0.000
 4681.00    1.49044   1.57088    0.000
 4682.00    1.50449   1.57431    0.000
 4683.00    1.53770   1.57878    0.000
 4684.00    1.58420   1.57964    0.000
 4685.00    1.58201   1.58258    0.000
 4686.00    1.55027   1.58606    0.000
 4687.00    1.52212   1.58521    0.000
 4688.00    1.49587   1.58590    0.000
 4689.00    1.54055   1.58961    0.000
 4690.00    1.61787   1.59079    0.000
 4691.00    1.58699   1.59184    0.000
 4692.00    1.51324   1.59521    0.000
 4693.00    1.52853   1.59570    0.000
 4694.00    1.57388   1.59103    0.000
 4695.00    1.56497   1.58443    0.000
 4696.00    1.54068   1.57598    0.000
 4697.00    1.56490   1.56359    0.000
 4698.00    1.60048   1.54987    0.000
 4699.00    1.60462   1.53844    0.000
 4700.00    1.60285   1.52971    0.000
 4701.00    1.58696   1.52346    0.000
 4702.00    1.56901   1.51964    0.000
 4703.00    1.54141   1.51917    0.000
 4704.00    1.51278   1.52263    0.000
 4705.00    1.47993   1.52648    0.000
 4706.00    1.44680   1.53067    0.000
 4707.00    1.51108   1.53850    0.000
 4708.00    1.57868   1.54733    0.000
 4709.00    1.58212   1.55613    0.000
 4710.00    1.58531   1.56714    0.000
 4711.00    1.58310   1.57961    0.000
 4712.00    1.57954   1.59443    0.000
 4713.00    1.55531   1.61122    0.000
 4714.00    1.53558   1.62839    0.000
 4715.00    1.56002   1.64853    0.000
 4716.00    1.59045   1.66980    0.000
 4717.00    1.66325   1.68731    0.000
 4718.00    1.71942   1.70212    0.000
 4719.00    1.68509   1.71357    0.000
 4720.00    1.65802   1.71753    0.000
 4721.00    1.66256   1.71433    0.000
 4722.00    1.66846   1.70538    0.000
 4723.00    1.67923   1.68932    0.000
 4724.00    1.68114   1.66801    0.000
 4725.00    1.65635   1.64600    0.000
 4726.00    1.62305   1.62331    0.000
 4727.00    1.56797   1.60200    0.000
 4728.00    1.53337   1.58909    0.000
 4729.00    1.54394   1.58267    0.000
 4730.00    1.53384   1.57958    0.000
 4731.00    1.48421   1.58599    0.000
 4732.00    1.48429   1.59717    0.000
 4733.00    1.56730   1.60568    0.000
 4734.00    1.60863   1.61877    0.000
 4735.00    1.58901   1.63377    0.000
 4736.00    1.61340   1.64246    0.000
 4737.00    1.69438   1.65217    0.000
 4738.00    1.73659   1.66431    0.000
 4739.00    1.73487   1.67252    0.000
 4740.00    1.73225   1.68000    0.000
 4741.00    1.72873   1.68848    0.000
 4742.00    1.69253   1.69661    0.000
 4743.00    1.62754   1.70461    0.000
 4744.00    1.61579   1.71007    0.000
 4745.00    1.64537   1.71415    0.000
 4746.00    1.68083   1.71839    0.000
 4747.00    1.72031   1.71801    0.000
 4748.00    1.73551   1.71304    0.000
 4749.00    1.73619   1.70770    0.000
 4750.00    1.71281   1.69994    0.000
 4751.00    1.67686   1.68895    0.000
 4752.00    1.66925   1.67892    0.000
 4753.00    1.67446   1.67067    0.000
 4754.00    1.66759   1.66235    0.000
 4755.00    1.65603   1.65471    0.000
 4756.00    1.68829   1.64897    0.000
 4757.00    1.73508   1.64230    0.000
 4758.00    1.68677   1.63219    0.000
 4759.00    1.61204   1.62169    0.000
 4760.00    1.61827   1.61103    0.000
 4761.00    1.64301   1.59727    0.080
 4762.00    1.64984   1.58521    0.079
 4763.00    1.65338   1.57946    0.077
 4764.00    1.60894   1.57655    0.077
 4765.00    1.55773   1.57782    0.076
 4766.00    1.54995   1.58759    0.076
 4767.00    1.54658   1.60141    0.077
 4768.00    1.57884   1.61611    0.076
 4769.00    1.61340   1.63404    0.076
 4770.00    1.60696   1.65319    0.075
 4771.00    1.59937   1.67005    0.075
 4772.00    1.64030   1.68451    0.076
 4773.00    1.68108   1.69806    0.077
 4774.00    1.71741   1.70932    0.076
 4775.00    1.75059   1.71428    0.076
 4776.00    1.73855   1.71478    0.076
 4777.00    1.72522   1.71365    0.076
 4778.00    1.69976   1.70717    0.075
 4779.00    1.67351   1.69440    0.074
 4780.00    1.64188   1.68190    0.074
 4781.00    1.62220   1.67121    0.073
 4782.00    1.66589   1.65684    0.074
 4783.00    1.68204   1.64438    0.074
 4784.00    1.58092   1.64078    0.072
 4785.00    1.50668   1.63750    0.072
 4786.00    1.52690   1.63595    0.072
 4787.00    1.55627   1.64510    0.072
 4788.00    1.61269   1.65682    0.073
 4789.00    1.65919   1.66839    0.074
 4790.00    1.68067   1.68627    0.074
 4791.00    1.70452   1.70428    0.074
 4792.00    1.73350   1.71735    0.074
 4793.00    1.74227   1.72896    0.074
 4794.00    1.71299   1.73699    0.074
 4795.00    1.68365   1.73842    0.073
 4796.00    1.65419   1.73669    0.072
 4797.00    1.63625   1.73389    0.072
 4798.00    1.63491   1.72934    0.073
 4799.00    1.66419   1.72487    0.074
 4800.00    1.73228   1.72158    0.074
 4801.00    1.76769   1.71748    0.074
 4802.00    1.76662   1.71340    0.074
 4803.00    1.75659   1.70951    0.075
 4804.00    1.73775   1.70329    0.075
 4805.00    1.73156   1.69815    0.074
 4806.00    1.73637   1.69597    0.074
 4807.00    1.73184   1.69368    0.074
 4808.00    1.72017   1.69438    0.075
 4809.00    1.71069   1.69987    0.074
 4810.00    1.70269   1.70662    0.073
 4811.00    1.69401   1.71483    0.072
 4812.00    1.68494   1.72555    0.072
 4813.00    1.71999   1.73645    0.072
 4814.00    1.77771   1.74576    0.072
 4815.00    1.79687   1.75420    0.073
 4816.00    1.79885   1.75994    0.073
 4817.00    1.75993   1.76048    0.073
 4818.00    1.70536   1.75849    0.073
 4819.00    1.67661   1.75254    0.073
 4820.00    1.65625   1.74146    0.072
 4821.00    1.69370   1.73147    0.073
 4822.00    1.74689   1.72121    0.073
 4823.00    1.73725   1.70971    0.073
 4824.00    1.71356   1.70255    0.073
 4825.00    1.65287   1.69676    0.072
 4826.00    1.58558   1.69130    0.072
 4827.00    1.59979   1.68896    0.072
 4828.00    1.62510   1.68591    0.072
 4829.00    1.65989   1.68368    0.073
 4830.00    1.69560   1.68445    0.073
 4831.00    1.68382   1.68379    0.073
 4832.00    1.66916   1.68320    0.073
 4833.00    1.66970   1.68462    0.072
 4834.00    1.67057   1.68433    0.072
 4835.00    1.65686   1.68174    0.072
 4836.00    1.64447   1.67855    0.072
 4837.00    1.66680   1.67504    0.072
 4838.00    1.68540   1.67140    0.072
 4839.00    1.65309   1.66750    0.071
 4840.00    1.62694   1.66569    0.071
 4841.00    1.65650   1.66746    0.071
 4842.00    1.68659   1.66882    0.071
 4843.00    1.72025   1.67090    0.072
 4844.00    1.73809   1.67512    0.072
 4845.00    1.67427   1.67577    0.072
 4846.00    1.62757   1.67489    0.072
 4847.00    1.65218   1.67343    0.072
 4848.00    1.66793   1.66558    0.000
 4849.00    1.65313   1.65564    0.000
 4850.00    1.64232   1.64457    0.000
 4851.00    1.64308   1.62559    0.000
 4852.00    1.63346   1.60347    0.000
 4853.00    1.59817   1.58159    0.000
 4854.00    1.56760   1.55328    0.000
 4855.00    1.54710   1.52227    0.000
 4856.00    1.54291   1.49594    0.000
 4857.00    1.56896   1.46910    0.000
 4858.00    1.56628   1.44448    0.000
 4859.00    1.51712   1.43186    0.000
 4860.00    1.47841   1.42562    0.000
 4861.00    1.45454   1.42490    0.000
 4862.00    1.45765   1.43665    0.000
 4863.00    1.49445   1.45267    0.000
 4864.00    1.52212   1.46688    0.000
 4865.00    1.53971   1.48313    0.000
 4866.00    1.53884   1.49749    0.000
 4867.00    1.52003   1.50442    0.000
 4868.00    1.50295   1.50838    0.000
 4869.00    1.48736   1.51416    0.000
 4870.00    1.47070   1.51936    0.000
 4871.00    1.45324   1.52510    0.000
 4872.00    1.48771   1.53760    0.000
 4873.00    1.55660   1.55552    0.000
 4874.00    1.59948   1.57221    0.000
 4875.00    1.62726   1.59016    0.073
 4876.00    1.62877   1.61063    0.072
 4877.00    1.61700   1.62345    0.072
 4878.00    1.63560   1.62956    0.072
 4879.00    1.66750   1.63454    0.073
 4880.00    1.64789   1.63105    0.073
 4881.00    1.60892   1.62012    0.072
 4882.00    1.62402   1.60879    0.073
 4883.00    1.65637   1.59534    0.074
 4884.00    1.65238   1.57966    0.074
 4885.00    1.63870   1.56712    0.073
 4886.00    1.59949   1.56128    0.073
 4887.00    1.55470   1.55912    0.072
 4888.00    1.52283   1.56393    0.072
 4889.00    1.49318   1.58136    0.072
 4890.00    1.54466   1.60321    0.073
 4891.00    1.60681   1.63033    0.073
 4892.00    1.67561   1.66542    0.074
 4893.00    1.74503   1.69602    0.075
 4894.00    1.78065   1.72272    0.075
 4895.00    1.81435   1.74708    0.075
 4896.00    1.76249   1.75960    0.075
 4897.00    1.70961   1.76488    0.075
 4898.00    1.75806   1.76722    0.076
 4899.00    1.80277   1.76216    0.077
 4900.00    1.75876   1.75522    0.075
 4901.00    1.71859   1.74997    0.073
 4902.00    1.72817   1.74313    0.074
 4903.00    1.73640   1.73630    0.074
 4904.00    1.73300   1.73001    0.074
 4905.00    1.73059   1.72303    0.073
 4906.00    1.73464   1.71498    0.074
 4907.00    1.73211   1.70613    0.074
 4908.00    1.69658   1.69888    0.074
 4909.00    1.66736   1.69230    0.074
 4910.00    1.66384   1.68540    0.074
 4911.00    1.65922   1.67958    0.074
 4912.00    1.65086   1.67191    0.073
 4913.00    1.63931   1.65975    0.073
 4914.00    1.61869   1.64367    0.072
 4915.00    1.61897   1.62328    0.072
 4916.00    1.67010   1.60035    0.073
 4917.00    1.69055   1.57822    0.073
 4918.00    1.64661   1.56030    0.073
 4919.00    1.60648   1.55124    0.073
 4920.00    1.57331   1.55210    0.072
 4921.00    1.57604   1.56220    0.071
 4922.00    1.63603   1.58319    0.071
 4923.00    1.67087   1.61149    0.071
 4924.00    1.67049   1.64039    0.072
 4925.00    1.66993   1.67143    0.072
 4926.00    1.66912   1.70051    0.071
 4927.00    1.68117   1.71898    0.070
 4928.00    1.70716   1.73290    0.069
 4929.00    1.72107   1.73997    0.069
 4930.00    1.72340   1.73350    0.070
 4931.00    1.72888   1.72408    0.070
 4932.00    1.73701   1.71114    0.070
 4933.00    1.72300   1.69153    0.070
 4934.00    1.69253   1.67686    0.071
 4935.00    1.67313   1.66589    0.070
 4936.00    1.66096   1.65693    0.069
 4937.00    1.65552   1.65898    0.068
 4938.00    1.65392   1.66808    0.068
 4939.00    1.66265   1.68042    0.069
 4940.00    1.67651   1.70073    0.000
 4941.00    1.70130   1.72341    0.000
 4942.00    1.73080   1.74372    0.000
 4943.00    1.73732   1.76458    0.000
 4944.00    1.73536   1.78247    0.000
 4945.00    1.75569   1.79481    0.000
 4946.00    1.78301   1.80412    0.000
 4947.00    1.79785   1.80867    0.000
 4948.00    1.80945   1.80647    0.000
 4949.00    1.78532   1.79943    0.000
 4950.00    1.75358   1.78705    0.000
 4951.00    1.76849   1.76674    0.000
 4952.00    1.79126   1.74402    0.000
 4953.00    1.73465   1.72129    0.000
 4954.00    1.66794   1.69602    0.000
 4955.00    1.65173   1.67738    0.000
 4956.00    1.64000   1.66620    0.000
 4957.00    1.63660   1.65913    0.000
 4958.00    1.63364   1.66111    0.000
 4959.00    1.66411   1.66614    0.000
 4960.00    1.69464   1.67225    0.000
 4961.00    1.67902   1.67948    0.000
 4962.00    1.66510   1.68205    0.000
 4963.00    1.68803   1.68333    0.000
 4964.00    1.70857   1.68293    0.000
 4965.00    1.69988   1.68118    0.000
 4966.00    1.69330   1.68303    0.000
 4967.00    1.70428   1.68548    0.000
 4968.00    1.71172   1.69121    0.000
 4969.00    1.69700   1.70014    0.000
 4970.00    1.68410   1.70707    0.000
 4971.00    1.68012   1.71437    0.000
 4972.00    1.68746   1.71696    0.000
 4973.00    1.73990   1.71291    0.000
 4974.00    1.77493   1.70525    0.000
 4975.00    1.75241   1.68900    0.000
 4976.00    1.72929   1.66685    0.000
 4977.00    1.70449   1.64320    0.000
 4978.00    1.67219   1.61717    0.000
 4979.00    1.62197   1.59188    0.000
 4980.00    1.58728   1.57212    0.000
 4981.00    1.58468   1.55937    0.000
 4982.00    1.57750   1.55276    0.000
 4983.00    1.56206   1.55550    0.000
 4984.00    1.55209   1.56575    0.000
 4985.00    1.55071   1.57809    0.000
 4986.00    1.58129   1.59628    0.000
 4987.00    1.65594   1.61391    0.000
 4988.00    1.68261   1.62640    0.000
 4989.00    1.65101   1.64134    0.000
 4990.00    1.63666   1.65017    0.000
 4991.00    1.64077   1.65300    0.000
 4992.00    1.61828   1.65767    0.000
 4993.00    1.57066   1.65434    0.000
 4994.00    1.59665   1.64746    0.000
 4995.00    1.68390   1.64084    0.000
 4996.00    1.70651   1.62593    0.000
 4997.00    1.68175   1.61022    0.000
 4998.00    1.64133   1.59492    0.000
 4999.00    1.59083   1.57525    0.000
 5000.00    1.54771   1.55797    0.000
 5001.00    1.50876   1.54402    0.000
 5002.00    1.53611   1.53167    0.000
 5003.00    1.59595   1.52251    0.000
 5004.00    1.66924   1.51768    0.000
 5005.00    1.74822   1.51581    0.000
 5006.00    1.76237   1.51379    0.000
 5007.00    1.75301   1.51319    0.000
 5008.00    1.71520   1.51106    0.000
 5009.00    1.66867   1.50582    0.000
 5010.00    1.62420   1.50168    0.000
 5011.00    1.58027   1.49420    0.000
 5012.00    1.55428   1.48673    0.000
 5013.00    1.53202   1.48432    0.000
 5014.00    1.54332   1.48203    0.000
 5015.00    1.56012   1.48321    0.000
 5016.00    1.56853   1.48840    0.000
 5017.00    1.57592   1.49550    0.000
 5018.00    1.53776   1.50539    0.000
 5019.00    1.49575   1.51467    0.000
 5020.00    1.53386   1.52624    0.000
 5021.00    1.57589   1.53782    0.000
 5022.00    1.55832   1.54818    0.000
 5023.00    1.54054   1.56270    0.000
 5024.00    1.56593   1.57439    0.000
 5025.00    1.59147   1.58685    0.000
 5026.00    1.61974   1.60345    0.000
 5027.00    1.64340   1.61577    0.000
 5028.00    1.61321   1.62905    0.000
 5029.00    1.59031   1.63985    0.068
 5030.00    1.62618   1.64335    0.068
 5031.00    1.65751   1.64590    0.068
 5032.00    1.66123   1.63897    0.068
 5033.00    1.66191   1.62349    0.068
 5034.00    1.64803   1.60742    0.068
 5035.00    1.63272   1.58398    0.067
 5036.00    1.61188   1.56242    0.067
 5037.00    1.59361   1.54696    0.067
 5038.00    1.58370   1.53185    0.067
 5039.00    1.56776   1.52964    0.067
 5040.00    1.53526   1.53705    0.066
 5041.00    1.51557   1.54668    0.065
 5042.00    1.52603   1.56439    0.065
 5043.00    1.55403   1.58309    0.065
 5044.00    1.61768   1.59908    0.066
 5045.00    1.65954   1.61220    0.066
 5046.00    1.66283   1.61879    0.066
 5047.00    1.65918   1.62314    0.066
 5048.00    1.64477   1.62623    0.066
 5049.00    1.63335   1.62841    0.066
 5050.00    1.62601   1.63330    0.066
 5051.00    1.63825   1.64193    0.067
 5052.00    1.67391   1.65511    0.067
 5053.00    1.68987   1.66954    0.067
 5054.00    1.68503   1.68462    0.067
 5055.00    1.68494   1.70097    0.067
 5056.00    1.68925   1.71301    0.067
 5057.00    1.70713   1.72113    0.067
 5058.00    1.73612   1.72366    0.067
 5059.00    1.74285   1.71925    0.067
 5060.00    1.73349   1.71314    0.067
 5061.00    1.71524   1.69982    0.067
 5062.00    1.69136   1.68162    0.066
 5063.00    1.66094   1.66700    0.066
 5064.00    1.62688   1.65176    0.065
 5065.00    1.61048   1.63708    0.066
 5066.00    1.60259   1.62616    0.066
 5067.00    1.60921   1.61982    0.067
 5068.00    1.62187   1.61688    0.067
 5069.00    1.64346   1.61272    0.068
 5070.00    1.66824   1.61003    0.068
 5071.00    1.65047   1.60903    0.068
 5072.00    1.61991   1.60467    0.068
 5073.00    1.60845   1.59564    0.068
 5074.00    1.60176   1.58546    0.068
 5075.00    1.59520   1.57562    0.068
 5076.00    1.58867   1.56211    0.067
 5077.00    1.58381   1.54829    0.068
 5078.00    1.57923   1.53955    0.069
 5079.00    1.55121   1.53516    0.068
 5080.00    1.52041   1.53491    0.067
 5081.00    1.52347   1.53982    0.067
 5082.00    1.52925   1.55105    0.067
 5083.00    1.51996   1.56745    0.067
 5084.00    1.50999   1.58504    0.066
 5085.00    1.56329   1.60270    0.066
 5086.00    1.61669   1.62185    0.065
 5087.00    1.63762   1.63940    0.065
 5088.00    1.65757   1.65195    0.066
 5089.00    1.65927   1.66118    0.066
 5090.00    1.65979   1.66666    0.066
 5091.00    1.64721   1.66660    0.066
 5092.00    1.63766   1.66100    0.067
 5093.00    1.65168   1.65051    0.068
 5094.00    1.65994   1.63888    0.068
 5095.00    1.63432   1.62585    0.068
 5096.00    1.60881   1.61109    0.067
 5097.00    1.58378   1.60043    0.066
 5098.00    1.56905   1.59296    0.066
 5099.00    1.59360   1.58743    0.066
 5100.00    1.60669   1.58492    0.065
 5101.00    1.58334   1.58190    0.064
 5102.00    1.57158   1.58069    0.064
 5103.00    1.59106   1.58048    0.065
 5104.00    1.59200   1.57572    0.065
 5105.00    1.55006   1.57389    0.066
 5106.00    1.53312   1.57525    0.066
 5107.00    1.56618   1.57437    0.065
 5108.00    1.59071   1.58028    0.064
 5109.00    1.60037   1.58970    0.065
 5110.00    1.59953   1.59922    0.066
 5111.00    1.58268   1.61540    0.066
 5112.00    1.58453   1.62964    0.066
 5113.00    1.61145   1.64168    0.066
 5114.00    1.64876   1.65434    0.067
 5115.00    1.69833   1.65892    0.068
 5116.00    1.71694   1.65859    0.068
 5117.00    1.70335   1.65270    0.068
 5118.00    1.68816   1.63842    0.068
 5119.00    1.67151   1.62219    0.068
 5120.00    1.65466   1.60138    0.067
 5121.00    1.63765   1.57844    0.066
 5122.00    1.60554   1.55982    0.066
 5123.00    1.56266   1.54311    0.065
 5124.00    1.52181   1.53097    0.064
 5125.00    1.48222   1.52530    0.063
 5126.00    1.48270   1.52401    0.063
 5127.00    1.50506   1.52839    0.064
 5128.00    1.53166   1.53680    0.065
 5129.00    1.56027   1.54740    0.066
 5130.00    1.56426   1.55790    0.066
 5131.00    1.55818   1.56665    0.065
 5132.00    1.54919   1.57563    0.064
 5133.00    1.53919   1.57836    0.064
 5134.00    1.55952   1.57753    0.065
 5135.00    1.58879   1.57633    0.065
 5136.00    1.59245   1.56659    0.066
 5137.00    1.58985   1.55984    0.066
 5138.00    1.59628   1.55498    0.066
 5139.00    1.60450   1.54200    0.066
 5140.00    1.61265   1.53535    0.066
 5141.00    1.62080   1.53171    0.066
 5142.00    1.58176   1.52439    0.066
 5143.00    1.53735   1.52230    0.066
 5144.00    1.54303   1.51876    0.066
 5145.00    1.55253   1.51509    0.066
 5146.00    1.53621   1.51768    0.066
 5147.00    1.51883   1.51722    0.067
 5148.00    1.53461   1.51697    0.065
 5149.00    1.54945   1.52294    0.064
 5150.00    1.51338   1.52929    0.065
 5151.00    1.48049   1.53779    0.066
 5152.00    1.50264   1.55041    0.065
 5153.00    1.52668   1.56266    0.065
 5154.00    1.57068   1.57648    0.066
 5155.00    1.61469   1.58911    0.067
 5156.00    1.65884   1.59377    0.067
 5157.00    1.69026   1.59496    0.068
 5158.00    1.64876   1.58842    0.067
 5159.00    1.60699   1.56774    0.066
 5160.00    1.56396   1.53986    0.067
 5161.00    1.51517   1.50225    0.067
 5162.00    1.44486   1.45600    0.067
 5163.00    1.39067   1.40785    0.066
 5164.00    1.38680   1.35647    0.066
 5165.00    1.36677   1.30940    0.065
 5166.00    1.30395   1.27179    0.065
 5167.00    1.25850   1.24359    0.065
 5168.00    1.25254   1.22595    0.064
 5169.00    1.24351   1.21770    0.064
 5170.00    1.22848   1.22303    0.064
 5171.00    1.22340   1.24275    0.064
 5172.00    1.23540   1.26867    0.064
 5173.00    1.27198   1.29543    0.065
 5174.00    1.34549   1.32273    0.065
 5175.00    1.39805   1.34757    0.065
 5176.00    1.42293   1.36507    0.065
 5177.00    1.43356   1.37199    0.065
 5178.00    1.42763   1.37095    0.064
 5179.00    1.42047   1.36640    0.064
 5180.00    1.41207   1.35644    0.064
 5181.00    1.39671   1.34945    0.064
 5182.00    1.37506   1.35293    0.064
 5183.00    1.36511   1.36215    0.063
 5184.00    1.36450   1.37898    0.062
 5185.00    1.37593   1.39868    0.062
 5186.00    1.39582   1.42142    0.062
 5187.00    1.43380   1.44995    0.062
 5188.00    1.48292   1.46953    0.063
 5189.00    1.52211   1.48174    0.063
 5190.00    1.55597   1.49683    0.000
 5191.00    1.54713   1.50911    0.000
 5192.00    1.51835   1.51755    0.000
 5193.00    1.52324   1.52714    0.000
 5194.00    1.54167   1.53707    0.000
 5195.00    1.56575   1.54829    0.000
 5196.00    1.59178   1.55910    0.000
 5197.00    1.61702   1.56380    0.000
 5198.00    1.64203   1.56407    0.000
 5199.00    1.62971   1.55906    0.000
 5200.00    1.60848   1.54741    0.000
 5201.00    1.58742   1.53028    0.000
 5202.00    1.56639   1.50739    0.000
 5203.00    1.56693   1.48697    0.000
 5204.00    1.57069   1.47160    0.000
 5205.00    1.53657   1.45789    0.000
 5206.00    1.49830   1.45464    0.000
 5207.00    1.50988   1.46063    0.000
 5208.00    1.52505   1.47362    0.000
 5209.00    1.52316   1.49572    0.000
 5210.00    1.52064   1.51900    0.000
 5211.00    1.52806   1.54407    0.064
 5212.00    1.53710   1.56890    0.064
 5213.00    1.60316   1.58996    0.065
 5214.00    1.66560   1.60890    0.065
 5215.00    1.66918   1.62417    0.065
 5216.00    1.67113   1.63448    0.064
 5217.00    1.65646   1.63856    0.065
 5218.00    1.64382   1.63804    0.065
 5219.00    1.64597   1.63229    0.065
 5220.00    1.65030   1.62117    0.065
 5221.00    1.66682   1.60534    0.066
 5222.00    1.67688   1.58818    0.066
 5223.00    1.65825   1.57202    0.065
 5224.00    1.63124   1.55682    0.065
 5225.00    1.57366   1.55206    0.065
 5226.00    1.54510   1.55324    0.066
 5227.00    1.60534   1.55646    0.067
 5228.00    1.64604   1.56990    0.067
 5229.00    1.63589   1.58385    0.066
 5230.00    1.63330   1.59970    0.066
 5231.00    1.64759   1.62124    0.066
 5232.00    1.67165   1.63840    0.066
 5233.00    1.71467   1.65818    0.066
 5234.00    1.73672   1.67819    0.066
 5235.00    1.72331   1.69321    0.065
 5236.00    1.72552   1.70918    0.065
 5237.00    1.75087   1.72226    0.065
 5238.00    1.76962   1.73217    0.065
 5239.00    1.77979   1.73798    0.064
 5240.00    1.79399   1.73776    0.064
 5241.00    1.81281   1.73477    0.064
 5242.00    1.80099   1.72816    0.064
 5243.00    1.75818   1.71535    0.064
 5244.00    1.72542   1.69786    0.064
 5245.00    1.70163   1.68388    0.064
 5246.00    1.69906   1.67154    0.064
 5247.00    1.71318   1.65644    0.064
 5248.00    1.70971   1.64711    0.064
 5249.00    1.69409   1.64304    0.063
 5250.00    1.67430   1.64425    0.063
 5251.00    1.65198   1.64998    0.063
 5252.00    1.65052   1.65340    0.063
 5253.00    1.66011   1.66285    0.064
 5254.00    1.69240   1.67332    0.064
 5255.00    1.73511   1.67585    0.064
 5256.00    1.75230   1.67357    0.064
 5257.00    1.75940   1.66179    0.063
 5258.00    1.73617   1.64208    0.063
 5259.00    1.70271   1.61572    0.063
 5260.00    1.65051   1.58047    0.063
 5261.00    1.59301   1.54215    0.063
 5262.00    1.55717   1.50363    0.063
 5263.00    1.52638   1.46633    0.063
 5264.00    1.51103   1.43967    0.064
 5265.00    1.49857   1.42135    0.065
 5266.00    1.44235   1.40518    0.064
 5267.00    1.37980   1.40151    0.064
 5268.00    1.40813   1.41518    0.065
 5269.00    1.44602   1.43704    0.066
 5270.00    1.53660   1.46266    0.066
 5271.00    1.63077   1.49342    0.066
 5272.00    1.61878   1.52523    0.066
 5273.00    1.60322   1.56116    0.066
 5274.00    1.64146   1.59821    0.066
 5275.00    1.67971   1.62607    0.066
 5276.00    1.71673   1.64994    0.067
 5277.00    1.75176   1.66895    0.067
 5278.00    1.75658   1.68227    0.066
 5279.00    1.75938   1.69578    0.066
 5280.00    1.74236   1.70565    0.065
 5281.00    1.72576   1.71450    0.064
 5282.00    1.71213   1.72933    0.065
 5283.00    1.70959   1.74609    0.065
 5284.00    1.76715   1.76236    0.065
 5285.00    1.81606   1.77810    0.065
 5286.00    1.82738   1.79290    0.065
 5287.00    1.83206   1.80693    0.064
 5288.00    1.81303   1.81503    0.065
 5289.00    1.80137   1.81424    0.065
 5290.00    1.81181   1.80623    0.066
 5291.00    1.81896   1.79470    0.066
 5292.00    1.81768   1.77921    0.066
 5293.00    1.80951   1.75835    0.065
 5294.00    1.78621   1.73608    0.065
 5295.00    1.77362   1.71688    0.065
 5296.00    1.78147   1.70748    0.065
 5297.00    1.77527   1.70436    0.065
 5298.00    1.74565   1.70378    0.064
 5299.00    1.72435   1.71178    0.064
 5300.00    1.71518   1.72807    0.064
 5301.00    1.73510   1.75026    0.064
 5302.00    1.79235   1.77394    0.064
 5303.00    1.82561   1.79485    0.064
 5304.00    1.83175   1.81390    0.064
 5305.00    1.83289   1.83191    0.064
 5306.00    1.82905   1.84709    0.064
 5307.00    1.83079   1.85652    0.064
 5308.00    1.83744   1.86074    0.063
 5309.00    1.84621   1.86126    0.063
 5310.00    1.85664   1.85861    0.063
 5311.00    1.86783   1.85393    0.063
 5312.00    1.87954   1.84689    0.063
 5313.00    1.86462   1.83639    0.063
 5314.00    1.83380   1.82532    0.063
 5315.00    1.81279   1.81413    0.062
 5316.00    1.79690   1.79979    0.062
 5317.00    1.77852   1.78518    0.062
 5318.00    1.75901   1.76844    0.062
 5319.00    1.77796   1.74806    0.062
 5320.00    1.81186   1.72495    0.062
 5321.00    1.80356   1.69870    0.062
 5322.00    1.78132   1.67501    0.062
 5323.00    1.73232   1.65322    0.062
 5324.00    1.67590   1.62990    0.062
 5325.00    1.64729   1.60888    0.062
 5326.00    1.62502   1.60093    0.062
 5327.00    1.60022   1.60512    0.062
 5328.00    1.57497   1.61496    0.062
 5329.00    1.62291   1.62932    0.062
 5330.00    1.68112   1.64706    0.062
 5331.00    1.69690   1.67226    0.062
 5332.00    1.70840   1.69710    0.062
 5333.00    1.73050   1.71543    0.062
 5334.00    1.75329   1.72913    0.062
 5335.00    1.76022   1.73745    0.062
 5336.00    1.76655   1.74174    0.063
 5337.00    1.72225   1.73918    0.063
 5338.00    1.68051   1.73513    0.062
 5339.00    1.71206   1.73477    0.062
 5340.00    1.74204   1.73204    0.062
 5341.00    1.74951   1.73060    0.062
 5342.00    1.75500   1.73031    0.063
 5343.00    1.74204   1.73169    0.062
 5344.00    1.73235   1.74000    0.061
 5345.00    1.74504   1.74625    0.061
 5346.00    1.75523   1.75355    0.061
 5347.00    1.75228   1.76674    0.061
 5348.00    1.74947   1.78158    0.061
 5349.00    1.74723   1.80015    0.061
 5350.00    1.75210   1.81838    0.061
 5351.00    1.78186   1.83726    0.061
 5352.00    1.82010   1.85817    0.061
 5353.00    1.88334   1.87495    0.062
 5354.00    1.92378   1.88811    0.062
 5355.00    1.90696   1.89635    0.062
 5356.00    1.90424   1.89899    0.062
 5357.00    1.93206   1.89678    0.062
 5358.00    1.94288   1.88803    0.062
 5359.00    1.92177   1.87391    0.061
 5360.00    1.89019   1.85768    0.061
 5361.00    1.84145   1.83802    0.061
 5362.00    1.81439   1.81449    0.061
 5363.00    1.81852   1.79216    0.060
 5364.00    1.81266   1.76986    0.060
 5365.00    1.79416   1.75071    0.060
 5366.00    1.78639   1.73420    0.061
 5367.00    1.79059   1.71918    0.061
 5368.00    1.78006   1.71142   -2.000
 5369.00    1.75507   1.71131   -2.000
 5370.00    1.74002   1.71995   -2.000
 5371.00    1.73359   1.73178   -2.000
 5372.00    1.74818   1.74645   -2.000
 5373.00    1.77882   1.76381   -2.000
 5374.00    1.82358   1.78115   -2.000
 5375.00    1.87780   1.79937   -2.000
 5376.00    1.89596   1.81283   -2.000
 5377.00    1.89289   1.82097   -2.000
 5378.00    1.86466   1.82535   -2.000
 5379.00    1.82353   1.82643   -2.000
 5380.00    1.81681   1.82488   -2.000
 5381.00    1.82538   1.82177   -2.000
 5382.00    1.81321   1.81697   -2.000
 5383.00    1.79312   1.80915    0.061
 5384.00    1.79635   1.80048    0.061
 5385.00    1.80714   1.79017    0.061
 5386.00    1.80638   1.77773    0.061
 5387.00    1.80248   1.76468    0.061
 5388.00    1.77986   1.74980    0.060
 5389.00    1.75307   1.73352    0.060
 5390.00    1.75162   1.71925    0.060
 5391.00    1.75468   1.70495    0.060
 5392.00    1.73893   1.69199    0.060
 5393.00    1.72062   1.68159    0.061
 5394.00    1.70608   1.67135    0.060
 5395.00    1.69190   1.66691    0.060
 5396.00    1.69815   1.66413    0.060
 5397.00    1.70563   1.65956    0.061
 5398.00    1.69272   1.65600    0.060
 5399.00    1.67933   1.65172    0.060
 5400.00    1.67317   1.64693    0.060
 5401.00    1.66732   1.64004    0.059
 5402.00    1.66925   1.63116    0.060
 5403.00    1.67183   1.62482    0.060
 5404.00    1.68312   1.62358    0.059
 5405.00    1.69212   1.62482    0.059
 5406.00    1.68058   1.62837    0.059
 5407.00    1.67083   1.63696    0.058
 5408.00    1.67300   1.65394    0.058
 5409.00    1.67804   1.67615    0.059
 5410.00    1.69788   1.69842    0.058
 5411.00    1.71896   1.71997    0.058
 5412.00    1.74519   1.74011    0.058
 5413.00    1.77029   1.76132    0.058
 5414.00    1.79151   1.78004    0.059
 5415.00    1.81305   1.79182    0.059
 5416.00    1.83551   1.79888    0.059
 5417.00    1.84287   1.80260    0.058
 5418.00    1.81292   1.80421    0.058
 5419.00    1.79095   1.80414    0.057
 5420.00    1.78598   1.79991    0.057
 5421.00    1.78773   1.79168    0.057
 5422.00    1.80193   1.78544    0.058
 5423.00    1.80673   1.77959    0.058
 5424.00    1.79635   1.77091    0.058
 5425.00    1.78357   1.76080    0.058
 5426.00    1.76738   1.74585    0.058
 5427.00    1.74865   1.73380    0.058
 5428.00    1.72677   1.72739    0.057
 5429.00    1.71925   1.71760    0.057
 5430.00    1.72752   1.71060    0.058
 5431.00    1.72942   1.70651    0.058
 5432.00    1.72513   1.70833    0.058
 5433.00    1.73959   1.72051    0.058
 5434.00    1.77010   1.73372    0.059
 5435.00    1.78180   1.75018    0.059
 5436.00    1.77935   1.76799    0.058
 5437.00    1.78639   1.78486    0.058
 5438.00    1.79972   1.80040    0.058
 5439.00    1.81601   1.80998    0.059
 5440.00    1.83404   1.81506    0.060
 5441.00    1.81768   1.81271    0.059
 5442.00    1.78396   1.80451    0.058
 5443.00    1.76998   1.79332    0.058
 5444.00    1.76463   1.78018    0.059
 5445.00    1.74792   1.77090    0.058
 5446.00    1.72694   1.76152    0.057
 5447.00    1.73605   1.75251    0.058
 5448.00    1.75472   1.74593    0.058
 5449.00    1.76359   1.74088    0.058
 5450.00    1.76987   1.73896    0.058
 5451.00    1.77515   1.73722    0.058
 5452.00    1.78023   1.73361    0.059
 5453.00    1.77037   1.73163    0.058
 5454.00    1.75793   1.73316    0.058
 5455.00    1.77461   1.73440    0.058
 5456.00    1.79512   1.73693    0.060
 5457.00    1.78643   1.73821    0.059
 5458.00    1.77504   1.74015    0.058
 5459.00    1.79234   1.74520    0.057
 5460.00    1.81125   1.74743    0.056
 5461.00    1.79628   1.74976    0.057
 5462.00    1.78067   1.75145    0.057
 5463.00    1.77687   1.75131    0.057
 5464.00    1.77377   1.75224    0.056
 5465.00    1.78723   1.75123    0.056
 5466.00    1.79874   1.74924    0.056
 5467.00    1.78513   1.74607    0.056
 5468.00    1.77193   1.73888    0.056
 5469.00    1.76221   1.73110    0.056
 5470.00    1.75406   1.72139    0.056
 5471.00    1.75596   1.70975    0.057
 5472.00    1.76178   1.69919    0.057
 5473.00    1.78718   1.68812    0.057
 5474.00    1.80491   1.68066    0.058
 5475.00    1.79151   1.67737    0.057
 5476.00    1.78065   1.67578    0.056
 5477.00    1.77836   1.67816    0.057
 5478.00    1.76836   1.68074   -2.000
 5479.00    1.73646   1.68734   -2.000
 5480.00    1.71896   1.69913   -2.000
 5481.00    1.73646   1.71053   -2.000
 5482.00    1.75234   1.72055   -2.000
 5483.00    1.76486   1.72768   -2.000
 5484.00    1.75125   1.73510   -2.000
 5485.00    1.69008   1.74265   -2.000
 5486.00    1.67510   1.74972   -2.000
 5487.00    1.73367   1.75414   -2.000
 5488.00    1.80399   1.75651   -2.000
 5489.00    1.89072   1.75824   -2.000
 5490.00    1.94910   1.75924   -2.000
 5491.00    1.97263   1.76157   -2.000
 5492.00    1.94449   1.76246   -2.000
 5493.00    1.86036   1.76257   -2.000
 5494.00    1.80612   1.76224   -2.000
 5495.00    1.78047   1.76068   -2.000
 5496.00    1.79051   1.75908   -2.000
 5497.00    1.83064   1.75682   -2.000
 5498.00    1.84114   1.75255   -2.000
 5499.00    1.82963   1.74709   -2.000
 5500.00    1.80242   1.74267   -2.000
 5501.00    1.76495   1.73800   -2.000
 5502.00    1.75413   1.73289    0.056
 5503.00    1.75851   1.72619    0.056
 5504.00    1.76014   1.72072    0.056
 5505.00    1.76040   1.71839    0.056
 5506.00    1.76438   1.71477    0.056
 5507.00    1.76995   1.71111    0.055
 5508.00    1.75525   1.70788    0.055
 5509.00    1.73308   1.70541    0.055
 5510.00    1.73743   1.70742    0.055
 5511.00    1.75006   1.71036    0.055
 5512.00    1.76289   1.71461    0.055
 5513.00    1.77578   1.72296    0.055
 5514.00    1.76267   1.73191    0.055
 5515.00    1.74405   1.74403    0.055
 5516.00    1.75545   1.75691    0.055
 5517.00    1.77190   1.76756    0.056
 5518.00    1.79390   1.77677    0.056
 5519.00    1.81661   1.78265    0.057
 5520.00    1.83548   1.78575    0.057
 5521.00    1.85402   1.78543    0.056
 5522.00    1.85443   1.78051    0.056
 5523.00    1.85390   1.77342    0.056
 5524.00    1.80541   1.76638    0.055
 5525.00    1.75629   1.75921    0.054
 5526.00    1.72682   1.75435    0.055
 5527.00    1.69848   1.75128    0.055
 5528.00    1.69435   1.74935    0.055
 5529.00    1.69411   1.74977    0.055
 5530.00    1.74124   1.75084    0.056
 5531.00    1.78377   1.75561    0.056
 5532.00    1.78803   1.76149    0.056
 5533.00    1.79392   1.76668    0.056
 5534.00    1.80987   1.77249    0.057
 5535.00    1.82286   1.77759    0.057
 5536.00    1.82140   1.78419    0.057
 5537.00    1.81975   1.78977    0.056
 5538.00    1.81737   1.79539    0.056
 5539.00    1.81670   1.80115    0.056
 5540.00    1.82164   1.80501    0.058
 5541.00    1.81880   1.80954    0.069
 5542.00    1.79425   1.81450    0.167
 5543.00    1.77766   1.81889   -1.000
 5544.00    1.78004   1.82286   -1.000
 5545.00    1.78550   1.82680   -1.000
 5546.00    1.79731   1.83069   -1.000
 5547.00    1.81375   1.83423   -1.000
 5548.00    1.83848   1.83562   -1.000
 5549.00    1.84722   1.83563   -1.000
 5550.00    1.83086   1.83511   -1.000
 5551.00    1.81561   1.83253    0.258
 5552.00    1.80189   1.82827    0.076
 5553.00    1.80506   1.82338    0.055
 5554.00    1.82870   1.81792    0.055
 5555.00    1.82973   1.81134    0.055
 5556.00    1.80660   1.80507    0.054
 5557.00    1.79427   1.79848    0.054
 5558.00    1.79211   1.79199    0.054
 5559.00    1.78438   1.78515    0.054
 5560.00    1.77200   1.77716    0.054
 5561.00    1.76693   1.77080    0.054
 5562.00    1.76718   1.76395    0.054
 5563.00    1.76119   1.75745    0.053
 5564.00    1.75119   1.75223    0.053
 5565.00    1.74117   1.74784    0.053
 5566.00    1.73114   1.74657    0.053
 5567.00    1.73424   1.74520    0.053
 5568.00    1.74377   1.74519    0.054
 5569.00    1.75561   1.74781    0.054
 5570.00    1.76842   1.75106    0.054
 5571.00    1.77656   1.75561    0.054
 5572.00    1.78301   1.76068    0.055
 5573.00    1.77736   1.76650    0.055
 5574.00    1.76800   1.77080    0.055
 5575.00    1.77220   1.77339    0.055
 5576.00    1.77985   1.77587    0.055
 5577.00    1.79760   1.77575    0.056
 5578.00    1.81743   1.77133    0.056
 5579.00    1.80614   1.76417    0.056
 5580.00    1.78978   1.75437    0.055
 5581.00    1.77617   1.74030    0.055
 5582.00    1.76290   1.72459    0.055
 5583.00    1.74850   1.70821    0.055
 5584.00    1.73400   1.69105    0.055
 5585.00    1.68417   1.67794    0.054
 5586.00    1.63263   1.66802    0.053
 5587.00    1.63855   1.66095    0.054
 5588.00    1.64530   1.65872    0.054
 5589.00    1.64982   1.65891    0.054
 5590.00    1.65498   1.66436    0.054
 5591.00    1.67265   1.67271    0.054
 5592.00    1.69073   1.68114    0.054
 5593.00    1.71353   1.68958    0.054
 5594.00    1.73102   1.69585    0.055
 5595.00    1.70595   1.70056    0.055
 5596.00    1.68699   1.70384    0.055
 5597.00    1.70488   1.70747    0.056
 5598.00    1.71985   1.71205    0.056
 5599.00    1.72092   1.71821    0.056
 5600.00    1.72081   1.72478    0.056
 5601.00    1.71616   1.73571    0.055
 5602.00    1.71836   1.74953    0.055
 5603.00    1.74273   1.76303    0.055
 5604.00    1.76703   1.77762    0.055
 5605.00    1.79115   1.78995    0.054
 5606.00    1.80759   1.80139    0.054
 5607.00    1.80604   1.80866    0.054
 5608.00    1.81215   1.81046    0.055
 5609.00    1.83381   1.80698    0.054
 5610.00    1.83811   1.79713    0.054
 5611.00    1.81178   1.78586    0.053
 5612.00    1.78363   1.77332    0.053
 5613.00    1.75268   1.76065    0.054
 5614.00    1.73840   1.74953    0.054
 5615.00    1.74676   1.73927    0.054
 5616.00    1.74692   1.73158    0.053
 5617.00    1.73726   1.72515    0.053
 5618.00    1.73441   1.72255    0.053
 5619.00    1.73872   1.72294    0.053
 5620.00    1.73470   1.72329    0.053
 5621.00    1.72295   1.72496    0.053
 5622.00    1.72439   1.72774    0.053
 5623.00    1.73664   1.73278    0.054
 5624.00    1.74364   1.73946    0.054
 5625.00    1.74685   1.74644    0.054
 5626.00    1.75789   1.75351    0.054
 5627.00    1.77387   1.76089    0.053
 5628.00    1.79148   1.76892    0.053
 5629.00    1.80999   1.77475    0.053
 5630.00    1.81436   1.77754    0.053
 5631.00    1.81192   1.77806    0.054
 5632.00    1.79974   1.77574    0.053
 5633.00    1.78350   1.77140    0.053
 5634.00    1.75643   1.76586    0.052
 5635.00    1.72551   1.75999    0.052
 5636.00    1.72250   1.75354    0.052
 5637.00    1.72786   1.74871    0.052
 5638.00    1.72689   1.74545    0.052
 5639.00    1.72434   1.74341    0.053
 5640.00    1.72960   1.74420    0.053
 5641.00    1.73645   1.74622    0.052
 5642.00    1.75341   1.74981    0.052
 5643.00    1.77197   1.75320    0.051
 5644.00    1.78867   1.75723    0.051
 5645.00    1.80515   1.76197    0.051
 5646.00    1.76674   1.76557    0.052
 5647.00    1.72395   1.76873    0.053
 5648.00    1.72538   1.77004    0.052
 5649.00    1.72878   1.76884    0.052
 5650.00    1.75662   1.76536    0.052
 5651.00    1.78389   1.76046    0.052
 5652.00    1.77005   1.75345    0.053
 5653.00    1.75553   1.74382    0.053
 5654.00    1.72837   1.73488    0.053
 5655.00    1.70368   1.72688    0.053
 5656.00    1.70638   1.71899    0.053
 5657.00    1.70874   1.71268    0.053
 5658.00    1.70838   1.71012    0.053
 5659.00    1.70961   1.71096    0.053
 5660.00    1.72018   1.71259    0.052
 5661.00    1.72977   1.71793    0.052
 5662.00    1.73483   1.72586    0.053
 5663.00    1.73862   1.73420    0.053
 5664.00    1.73756   1.74251    0.053
 5665.00    1.74324   1.75184    0.053
 5666.00    1.77032   1.76205    0.053
 5667.00    1.78708   1.77210    0.053
 5668.00    1.77611   1.78243    0.052
 5669.00    1.76813   1.79156    0.052
 5670.00    1.76708   1.80002    0.052
 5671.00    1.77697   1.80833    0.052
 5672.00    1.80869   1.81553    0.052
 5673.00    1.82937   1.82023    0.052
 5674.00    1.83084   1.82279    0.052
 5675.00    1.83805   1.82316    0.053
 5676.00    1.85401   1.82081    0.053
 5677.00    1.85649   1.81474    0.054
 5678.00    1.84096   1.80803    0.054
 5679.00    1.82127   1.80120    0.054
 5680.00    1.79668   1.79364    0.053
 5681.00    1.78526   1.78607    0.053
 5682.00    1.78750   1.77934    0.053
 5683.00    1.78356   1.77518    0.052
 5684.00    1.77396   1.77235    0.052
 5685.00    1.76068   1.77306    0.051
 5686.00    1.74443   1.77578    0.051
 5687.00    1.74961   1.78091    0.051
 5688.00    1.77003   1.78622    0.052
 5689.00    1.78019   1.79109    0.052
 5690.00    1.78395   1.79625    0.052
 5691.00    1.79592   1.79988    0.052
 5692.00    1.81235   1.80246    0.052
 5693.00    1.82771   1.80036    0.052
 5694.00    1.84256   1.79674    0.052
 5695.00    1.82565   1.79051    0.053
 5696.00    1.79576   1.78077    0.053
 5697.00    1.77900   1.77045    0.053
 5698.00    1.76682   1.75943    0.053
 5699.00    1.76540   1.74886    0.053
 5700.00    1.76714   1.73697    0.054
 5701.00    1.75600   1.72517    0.053
 5702.00    1.74172   1.71477    0.052
 5703.00    1.72589   1.70464    0.052
 5704.00    1.70976   1.69548    0.052
 5705.00    1.69621   1.69010    0.052
 5706.00    1.68306   1.68660    0.052
 5707.00    1.69626   1.68538    0.052
 5708.00    1.71245   1.68901    0.052
 5709.00    1.72997   1.69588    0.052
 5710.00    1.74760   1.70675    0.052
 5711.00    1.74923   1.72049    0.052
 5712.00    1.75021   1.73742    0.051
 5713.00    1.76545   1.75563    0.052
 5714.00    1.78065   1.77392    0.052
 5715.00    1.79003   1.79268    0.052
 5716.00    1.80027   1.80970    0.052
 5717.00    1.82541   1.82448    0.052
 5718.00    1.84955   1.83704    0.052
 5719.00    1.86322   1.84646    0.052
 5720.00    1.87857   1.85298    0.052
 5721.00    1.90656   1.85719    0.052
 5722.00    1.92995   1.85812    0.052
 5723.00    1.92704   1.85794    0.052
 5724.00    1.91779   1.85688    0.053
 5725.00    1.87970   1.85434    0.052
 5726.00    1.84977   1.85057    0.052
 5727.00    1.85019   1.84742    0.052
 5728.00    1.85197   1.84594    0.052
 5729.00    1.85797   1.84441    0.052
 5730.00    1.86141   1.84456    0.052
 5731.00    1.85804   1.84558    0.052
 5732.00    1.85283   1.84660    0.052
 5733.00    1.84343   1.84758    0.053
 5734.00    1.83992   1.84868    0.053
 5735.00    1.84794   1.85031    0.053
 5736.00    1.85737   1.85117    0.053
 5737.00    1.86919   1.85149    0.052
 5738.00    1.87073   1.85120    0.052
 5739.00    1.85685   1.85081    0.052
 5740.00    1.85726   1.85051    0.000
 5741.00    1.87651   1.84961    0.000
 5742.00    1.89095   1.84805    0.000
 5743.00    1.89980   1.84535    0.000
 5744.00    1.90340   1.84310    0.000
 5745.00    1.90163   1.84020    0.000
 5746.00    1.90143   1.83670    0.000
 5747.00    1.90264   1.83236    0.000
 5748.00    1.89136   1.82737    0.000
 5749.00    1.87012   1.82266    0.000
 5750.00    1.85174   1.81868    0.000
 5751.00    1.83535   1.81694    0.000
 5752.00    1.83207   1.81560    0.000
 5753.00    1.83686   1.81517    0.000
 5754.00    1.83698   1.81430    0.000
 5755.00    1.83460   1.81379    0.000
 5756.00    1.82654   1.81345    0.000
 5757.00    1.81584   1.81433    0.000
 5758.00    1.81184   1.81594    0.000
 5759.00    1.81054   1.81872    0.000
 5760.00    1.81558   1.82219    0.000
 5761.00    1.82280   1.82593    0.000
 5762.00    1.83286   1.83087    0.000
 5763.00    1.84373   1.83639    0.000
 5764.00    1.86016   1.84267    0.000
 5765.00    1.87791   1.84819    0.000
 5766.00    1.89440   1.85407    0.000
 5767.00    1.91064   1.85730    0.000
 5768.00    1.90826   1.85889    0.000
 5769.00    1.90310   1.85807    0.000
 5770.00    1.91163   1.85497    0.000
 5771.00    1.92164   1.85034    0.000
 5772.00    1.91433   1.84338    0.000
 5773.00    1.90577   1.83493    0.000
 5774.00    1.89406   1.82370    0.000
 5775.00    1.88223   1.81134    0.000
 5776.00    1.87650   1.79677    0.000
 5777.00    1.87012   1.78210    0.000
 5778.00    1.83954   1.76776    0.000
 5779.00    1.80941   1.75431    0.000
 5780.00    1.78635   1.74248    0.000
 5781.00    1.76639   1.73398    0.000
 5782.00    1.77781   1.72986    0.000
 5783.00    1.78791   1.72863    0.000
 5784.00    1.78852   1.73254    0.000
 5785.00    1.79097   1.73986    0.000
 5786.00    1.80363   1.74960    0.000
 5787.00    1.81683   1.76166    0.000
 5788.00    1.83240   1.77480    0.000
 5789.00    1.84671   1.78859    0.000
 5790.00    1.85645   1.80131    0.000
 5791.00    1.86477   1.81303   -2.000
 5792.00    1.86878   1.82345   -2.000
 5793.00    1.87464   1.83204   -2.000
 5794.00    1.88528   1.84113   -2.000
 5795.00    1.89139   1.84901   -2.000
 5796.00    1.88736   1.85539   -2.000
 5797.00    1.88873   1.86094   -2.000
 5798.00    1.90052   1.86470   -2.000
 5799.00    1.90742   1.86686   -2.000
 5800.00    1.90603   1.86799   -2.000
 5801.00    1.90814   1.86872   -2.000
 5802.00    1.91541   1.86870   -2.000
 5803.00    1.92056   1.86777   -2.000
 5804.00    1.92296   1.86664   -2.000
 5805.00    1.92412   1.86514   -2.000
 5806.00    1.92384   1.86371   -2.000
 5807.00    1.91158   1.86260   -2.000
 5808.00    1.88723   1.86203   -2.000
 5809.00    1.87015   1.86153   -2.000
 5810.00    1.85955   1.86146   -2.000
 5811.00    1.85821   1.86171    0.000
 5812.00    1.86414   1.86243    0.000
 5813.00    1.87126   1.86437    0.000
 5814.00    1.87919   1.86644    0.000
 5815.00    1.88427   1.86965    0.000
 5816.00    1.88762   1.87336    0.000
 5817.00    1.89728   1.87759    0.000
 5818.00    1.91026   1.88235    0.000
 5819.00    1.92185   1.88705    0.000
 5820.00    1.93280   1.89215    0.000
 5821.00    1.94176   1.89601    0.000
 5822.00    1.94994   1.89943    0.000
 5823.00    1.95024   1.90166    0.000
 5824.00    1.94789   1.90300    0.000
 5825.00    1.94510   1.90369    0.000
 5826.00    1.94218   1.90348    0.000
 5827.00    1.95220   1.90286    0.000
 5828.00    1.96523   1.90144    0.000
 5829.00    1.95761   1.89983    0.000
 5830.00    1.94613   1.89769    0.000
 5831.00    1.93310   1.89562    0.000
 5832.00    1.91985   1.89380    0.000
 5833.00    1.91437   1.89215    0.000
 5834.00    1.90971   1.89132    0.000
 5835.00    1.89843   1.89122    0.000
 5836.00    1.88670   1.89158    0.000
 5837.00    1.88686   1.89217    0.000
 5838.00    1.88740   1.89292    0.000
 5839.00    1.90433   1.89303    0.000
 5840.00    1.92087   1.89190    0.000
 5841.00    1.92472   1.88970    0.000
 5842.00    1.92874   1.88598    0.000
 5843.00    1.93523   1.88067    0.000
 5844.00    1.93909   1.87387    0.000
 5845.00    1.91745   1.86542    0.000
 5846.00    1.89725   1.85549    0.000
 5847.00    1.88714   1.84487    0.000
 5848.00    1.88056   1.83376    0.000
 5849.00    1.89304   1.82245    0.000
 5850.00    1.89699   1.81115    0.000
 5851.00    1.86395   1.80045    0.000
 5852.00    1.83581   1.79094    0.000
 5853.00    1.82511   1.78259    0.000
 5854.00    1.81425   1.77661    0.000
 5855.00    1.80290   1.77173    0.000
 5856.00    1.79257   1.76989    0.000
 5857.00    1.78486   1.76999    0.000
 5858.00    1.78711   1.77235    0.000
 5859.00    1.81125   1.77609    0.000
 5860.00    1.82433   1.78091    0.000
 5861.00    1.81633   1.78750    0.000
 5862.00    1.80854   1.79397    0.000
 5863.00    1.80108   1.80168    0.000
 5864.00    1.80234   1.80819    0.000
 5865.00    1.81631   1.81477    0.000
 5866.00    1.82875   1.82029    0.000
 5867.00    1.83922   1.82546    0.000
 5868.00    1.84389   1.82956    0.000
 5869.00    1.84201   1.83224    0.000
 5870.00    1.84227   1.83387    0.000
 5871.00    1.84465   1.83338    0.000
 5872.00    1.84402   1.83166    0.000
 5873.00    1.84076   1.82730    0.000
 5874.00    1.83667   1.82160    0.000
 5875.00    1.83195   1.81387    0.000
 5876.00    1.81915   1.80440    0.000
 5877.00    1.80085   1.79291    0.000
 5878.00    1.78673   1.77915    0.000
 5879.00    1.77510   1.76288    0.000
 5880.00    1.76686   1.74292    0.000
 5881.00    1.76038   1.71887    0.000
 5882.00    1.74044   1.68947    0.000
 5883.00    1.71444   1.65590    0.000
 5884.00    1.68244   1.62088    0.000
 5885.00    1.64811   1.58411    0.000
 5886.00    1.60693   1.54735    0.000
 5887.00    1.56350   1.51302    0.000
 5888.00    1.52582   1.48146    0.000
 5889.00    1.48973   1.45616    0.000
 5890.00    1.47627   1.44002    0.000
 5891.00    1.46795   1.43270    0.000
 5892.00    1.46759   1.43406    0.000
 5893.00    1.46868   1.44533    0.000
 5894.00    1.49080   1.46500    0.000
 5895.00    1.51586   1.49135    0.000
 5896.00    1.53618   1.52274    0.000
 5897.00    1.55604   1.55614    0.000
 5898.00    1.58571   1.59005    0.000
 5899.00    1.61600   1.62444    0.000
 5900.00    1.66072   1.65675    0.000
 5901.00    1.70582   1.68651    0.049
 5902.00    1.73303   1.71243    0.049
 5903.00    1.75904   1.73307    0.050
 5904.00    1.75139   1.74951    0.050
 5905.00    1.74580   1.76190    0.049
 5906.00    1.76963   1.77052    0.050
 5907.00    1.79203   1.77549    0.050
 5908.00    1.80116   1.77860    0.050
 5909.00    1.80918   1.77943    0.050
 5910.00    1.80973   1.77936    0.049
 5911.00    1.81021   1.77855    0.049
 5912.00    1.81035   1.77738    0.049
 5913.00    1.80897   1.77691    0.049
 5914.00    1.80113   1.77668    0.049
 5915.00    1.79504   1.77770    0.049
 5916.00    1.79501   1.77934    0.049
 5917.00    1.79856   1.78242    0.049
 5918.00    1.81265   1.78549    0.049
 5919.00    1.82374   1.78949    0.049
 5920.00    1.82731   1.79304    0.049
 5921.00    1.82815   1.79590    0.049
 5922.00    1.82308   1.79818    0.048
 5923.00    1.81991   1.79903    0.048
 5924.00    1.82027   1.79973    0.048
 5925.00    1.81829   1.79944    0.048
 5926.00    1.81245   1.79881    0.048
 5927.00    1.80928   1.79752    0.048
 5928.00    1.80996   1.79656    0.049
 5929.00    1.80983   1.79604    0.049
 5930.00    1.80869   1.79562    0.049
 5931.00    1.80950   1.79593    0.049
 5932.00    1.81247   1.79630    0.049
 5933.00    1.81436   1.79749    0.049
 5934.00    1.81517   1.79846    0.049
 5935.00    1.81265   1.79997    0.049
 5936.00    1.80725   1.80155    0.049
 5937.00    1.80623   1.80269    0.049
 5938.00    1.80854   1.80387    0.049
 5939.00    1.81638   1.80462    0.049
 5940.00    1.82792   1.80543    0.049
 5941.00    1.83522   1.80565    0.049
 5942.00    1.84003   1.80526    0.049
 5943.00    1.84245   1.80459    0.049
 5944.00    1.84365   1.80353    0.049
 5945.00    1.84125   1.80164    0.049
 5946.00    1.83726   1.79939    0.049
 5947.00    1.82939   1.79732    0.049
 5948.00    1.82002   1.79495    0.048
 5949.00    1.82414   1.79254    0.048
 5950.00    1.83261   1.79048    0.048
 5951.00    1.83729   1.78911    0.048
 5952.00    1.84094   1.78887    0.048
 5953.00    1.84118   1.78974    0.048
 5954.00    1.84067   1.79203    0.048
 5955.00    1.83705   1.79548    0.049
 5956.00    1.83287   1.79966    0.049
 5957.00    1.83904   1.80447    0.049
 5958.00    1.84661   1.81018    0.049
 5959.00    1.85131   1.81592    0.048
 5960.00    1.85572   1.82167    0.048
 5961.00    1.84595   1.82679    0.048
 5962.00    1.83533   1.83199    0.048
 5963.00    1.83130   1.83636    0.048
 5964.00    1.82746   1.84029    0.048
 5965.00    1.82810   1.84325    0.048
 5966.00    1.82893   1.84528    0.048
 5967.00    1.83468   1.84638    0.048
 5968.00    1.83967   1.84608    0.048
 5969.00    1.83451   1.84487    0.048
 5970.00    1.83034   1.84194    0.048
 5971.00    1.83500   1.83844    0.049
 5972.00    1.83769   1.83355    0.049
 5973.00    1.82740   1.82803    0.049
 5974.00    1.81696   1.82179    0.049
 5975.00    1.80568   1.81554    0.048
 5976.00    1.79701   1.80939    0.048
 5977.00    1.79913   1.80376    0.048
 5978.00    1.80396   1.79891    0.048
 5979.00    1.81806   1.79490    0.048
 5980.00    1.82860   1.79181    0.049
 5981.00    1.82888   1.78993    0.049
 5982.00    1.82824   1.78927    0.048
 5983.00    1.82537   1.78978    0.048
 5984.00    1.82552   1.79157    0.048
 5985.00    1.83210   1.79434    0.048
 5986.00    1.83978   1.79793    0.048
 5987.00    1.84951   1.80191    0.048
 5988.00    1.85172   1.80603    0.048
 5989.00    1.84182   1.80989    0.048
 5990.00    1.83506   1.81355    0.048
 5991.00    1.83274   1.81567    0.048
 5992.00    1.83312   1.81668    0.047
 5993.00    1.83687   1.81643    0.048
 5994.00    1.83619   1.81495    0.048
 5995.00    1.83067   1.81260    0.047
 5996.00    1.83323   1.80929    0.047
 5997.00    1.84363   1.80599    0.047
 5998.00    1.85219   1.80210    0.048
 5999.00    1.85919   1.79781    0.048
 6000.00    1.86360   1.79367    0.049
 6001.00    1.86606   1.78967    0.049
 6002.00    1.85943   1.78606    0.049
 6003.00    1.84678   1.78282    0.048
 6004.00    1.83231   1.77989    0.048
 6005.00    1.81680   1.77747    0.048
 6006.00    1.80949   1.77548    0.048
 6007.00    1.80632   1.77377    0.048
 6008.00    1.80118   1.77272    0.048
 6009.00    1.79517   1.77209    0.049
 6010.00    1.79151   1.77110    0.048
 6011.00    1.78871   1.77011    0.048
 6012.00    1.79371   1.76912    0.048
 6013.00    1.80119   1.76811    0.048
 6014.00    1.80758   1.76776    0.048
 6015.00    1.81367   1.76686    0.048
 6016.00    1.80421   1.76679    0.048
 6017.00    1.79137   1.76724    0.048
 6018.00    1.77717   1.76899    0.048
 6019.00    1.76274   1.77236    0.048
 6020.00    1.77077   1.77661    0.048
 6021.00    1.78174   1.78246    0.048
 6022.00    1.79369   1.78920    0.049
 6023.00    1.80573   1.79748    0.049
 6024.00    1.80464   1.80564    0.048
 6025.00    1.80281   1.81487    0.047
 6026.00    1.81754   1.82365    0.048
 6027.00    1.83254   1.83240    0.048
 6028.00    1.83896   1.84033    0.048
 6029.00    1.84506   1.84743    0.047
 6030.00    1.84392   1.85378    0.048
 6031.00    1.84356   1.85851    0.048
 6032.00    1.85319   1.86274    0.048
 6033.00    1.86341   1.86565    0.049
 6034.00    1.87857   1.86798    0.048
 6035.00    1.88910   1.86938    0.048
 6036.00    1.87001   1.87064    0.048
 6037.00    1.85374   1.87166    0.049
 6038.00    1.85154   1.87272    0.048
 6039.00    1.85049   1.87406    0.047
 6040.00    1.85406   1.87552    0.047
 6041.00    1.85640   1.87759    0.047
 6042.00    1.85459   1.87942    0.048
 6043.00    1.85713   1.88146    0.048
 6044.00    1.87200   1.88276    0.048
 6045.00    1.88831   1.88371    0.048
 6046.00    1.90814   1.88367    0.048
 6047.00    1.92241   1.88250    0.048
 6048.00    1.92506   1.88056    0.048
 6049.00    1.92400   1.87720    0.049
 6050.00    1.91619   1.87346    0.048
 6051.00    1.90563   1.86883    0.048
 6052.00    1.89069   1.86422    0.047
 6053.00    1.87889   1.85944    0.047
 6054.00    1.87146   1.85496    0.048
 6055.00    1.86356   1.85107    0.048
 6056.00    1.85507   1.84725    0.048
 6057.00    1.84832   1.84444    0.047
 6058.00    1.84344   1.84190    0.048
 6059.00    1.84248   1.84048    0.048
 6060.00    1.84524   1.83961    0.048
 6061.00    1.84967   1.84000    0.048
 6062.00    1.85548   1.84179    0.048
 6063.00    1.85009   1.84483    0.048
 6064.00    1.83641   1.84957    0.048
 6065.00    1.83301   1.85513    0.048
 6066.00    1.83629   1.86178    0.048
 6067.00    1.85120   1.86826    0.048
 6068.00    1.87273   1.87449    0.047
 6069.00    1.89527   1.87937    0.048
 6070.00    1.91832   1.88246    0.048
 6071.00    1.92223   1.88363    0.048
 6072.00    1.91794   1.88207    0.048
 6073.00    1.90485   1.87829    0.047
 6074.00    1.88853   1.87227    0.047
 6075.00    1.87908   1.86489    0.048
 6076.00    1.87178   1.85647    0.048
 6077.00    1.86372   1.84795    0.048
 6078.00    1.85547   1.83958    0.047
 6079.00    1.85242   1.83200    0.047
 6080.00    1.85046   1.82545    0.047
 6081.00    1.84235   1.82007    0.047
 6082.00    1.83321   1.81597    0.047
 6083.00    1.81869   1.81285    0.047
 6084.00    1.80349   1.81103    0.047
 6085.00    1.80407   1.80969    0.047
 6086.00    1.80603   1.80914    0.048
 6087.00    1.81569   1.80907    0.047
 6088.00    1.82576   1.80966    0.047
 6089.00    1.83064   1.81053    0.048
 6090.00    1.83538   1.81179    0.048
 6091.00    1.83703   1.81301    0.048
 6092.00    1.83772   1.81402    0.048
 6093.00    1.81782   1.81490    0.047
 6094.00    1.79955   1.81474    0.047
 6095.00    1.80091   1.81400    0.047
 6096.00    1.80283   1.81192    0.048
 6097.00    1.80950   1.80941    0.047
 6098.00    1.81547   1.80613    0.047
 6099.00    1.81710   1.80328    0.047
 6100.00    1.81774   1.80063    0.047
 6101.00    1.81361   1.79933    0.047
 6102.00    1.80968   1.79960    0.047
 6103.00    1.80653   1.80145    0.047
 6104.00    1.80367   1.80516    0.047
 6105.00    1.80172   1.80980    0.047
 6106.00    1.80194   1.81551    0.048
 6107.00    1.80815   1.82106    0.048
 6108.00    1.81569   1.82665    0.047
 6109.00    1.82636   1.83091    0.047
 6110.00    1.83369   1.83402    0.047
 6111.00    1.83414   1.83507    0.047
 6112.00    1.83295   1.83415    0.047
 6113.00    1.82884   1.83122    0.047
 6114.00    1.82704   1.82657    0.048
 6115.00    1.82887   1.82038    0.048
 6116.00    1.83147   1.81337    0.048
 6117.00    1.83513   1.80600    0.047
 6118.00    1.83025   1.79896    0.048
 6119.00    1.81503   1.79314    0.048
 6120.00    1.80092   1.78860    0.048
 6121.00    1.78797   1.78600    0.048
 6122.00    1.78241   1.78502    0.048
 6123.00    1.78379   1.78567    0.048
 6124.00    1.79064   1.78724    0.048
 6125.00    1.80201   1.78918    0.047
 6126.00    1.81213   1.79060    0.047
 6127.00    1.82133   1.79106    0.047
 6128.00    1.83042   1.78992    0.047
 6129.00    1.83942   1.78681    0.047
 6130.00    1.83479   1.78193    0.047
 6131.00    1.82250   1.77541    0.046
 6132.00    1.79635   1.76805    0.046
 6133.00    1.76343   1.76103    0.047
 6134.00    1.74111   1.75531    0.047
 6135.00    1.72326   1.75165    0.047
 6136.00    1.72370   1.75102    0.047
 6137.00    1.73074   1.75316    0.048
 6138.00    1.74230   1.75838    0.048
 6139.00    1.75524   1.76560    0.048
 6140.00    1.78180   1.77450    0.048
 6141.00    1.81181   1.78354    0.047
 6142.00    1.84027   1.79218    0.047
 6143.00    1.86841   1.79945    0.048
 6144.00    1.87612   1.80497    0.048
 6145.00    1.88052   1.80853    0.048
 6146.00    1.87561   1.80956    0.048
 6147.00    1.86956   1.80845    0.048
 6148.00    1.85339   1.80528    0.047
 6149.00    1.83638   1.80078    0.047
 6150.00    1.83048   1.79446    0.047
 6151.00    1.82511   1.78654    0.048
 6152.00    1.80907   1.77659    0.048
 6153.00    1.79267   1.76507    0.048
 6154.00    1.76495   1.75154    0.047
 6155.00    1.73821   1.73657    0.046
 6156.00    1.73062   1.72039    0.047
 6157.00    1.72265   1.70386    0.047
 6158.00    1.71031   1.68788    0.047
 6159.00    1.69659   1.67323    0.047
 6160.00    1.67191   1.66100    0.047
 6161.00    1.65081   1.65164    0.047
 6162.00    1.65122   1.64586    0.047
 6163.00    1.65306   1.64356    0.047
 6164.00    1.66166   1.64439    0.047
 6165.00    1.66706   1.64817    0.046
 6166.00    1.66008   1.65408    0.046
 6167.00    1.65747   1.66173    0.046
 6168.00    1.66899   1.67055    0.047
 6169.00    1.68339   1.68040    0.047
 6170.00    1.70570   1.69069    0.047
 6171.00    1.72542   1.70101    0.047
 6172.00    1.73910   1.71124    0.047
 6173.00    1.74590   1.72092    0.047
 6174.00    1.73879   1.73020    0.047
 6175.00    1.73244   1.73826    0.047
 6176.00    1.72746   1.74537    0.047
 6177.00    1.72029   1.75104    0.047
 6178.00    1.70975   1.75508    0.047
 6179.00    1.69497   1.75702    0.046
 6180.00    1.67444   1.75687    0.046
 6181.00    1.66597   1.75472    0.046
 6182.00    1.67187   1.75045    0.046
 6183.00    1.68343   1.74467    0.045
 6184.00    1.70094   1.73762    0.045
 6185.00    1.70862   1.73020    0.046
 6186.00    1.70718   1.72287    0.046
 6187.00    1.69666   1.71661    0.047
 6188.00    1.67871   1.71199    0.046
 6189.00    1.66864   1.70939    0.046
 6190.00    1.66424   1.70909    0.046
 6191.00    1.66512   1.71098    0.046
 6192.00    1.66933   1.71464    0.046
 6193.00    1.66442   1.71975    0.046
 6194.00    1.65447   1.72559    0.046
 6195.00    1.64665   1.73191    0.048
 6196.00    1.63985   1.73800   -2.000
 6197.00    1.67517   1.74393   -2.000
 6198.00    1.72796   1.74921   -2.000
 6199.00    1.78430   1.75416   -2.000
 6200.00    1.84191   1.75825   -2.000
 6201.00    1.88532   1.76153   -2.000
 6202.00    1.92448   1.76364   -2.000
 6203.00    1.89471   1.76427   -2.000
 6204.00    1.84781   1.76312   -2.000
 6205.00    1.80673   1.75986   -2.000
 6206.00    1.76682   1.75442   -2.000
 6207.00    1.77079   1.74677   -2.000
 6208.00    1.78168   1.73728    0.048
 6209.00    1.76884   1.72623    0.048
 6210.00    1.75322   1.71449    0.048
 6211.00    1.72248   1.70250    0.047
 6212.00    1.69054   1.69133    0.046
 6213.00    1.66410   1.68135    0.046
 6214.00    1.63790   1.67333    0.046
 6215.00    1.63765   1.66727    0.046
 6216.00    1.63787   1.66344    0.045
 6217.00    1.64664   1.66145    0.046
 6218.00    1.65546   1.66111    0.046
 6219.00    1.66519   1.66178    0.046
 6220.00    1.67548   1.66300    0.046
 6221.00    1.69190   1.66426    0.046
 6222.00    1.70710   1.66501    0.046
 6223.00    1.71291   1.66524    0.047
 6224.00    1.71718   1.66457    0.047
 6225.00    1.71250   1.66342    0.047
 6226.00    1.70706   1.66184    0.047
 6227.00    1.69807   1.66040    0.047
 6228.00    1.69070   1.65945    0.047
 6229.00    1.68953   1.65924    0.047
 6230.00    1.68859   1.66007    0.047
 6231.00    1.68841   1.66134    0.047
 6232.00    1.68706   1.66324    0.047
 6233.00    1.68256   1.66468    0.046
 6234.00    1.67960   1.66582    0.046
 6235.00    1.68016   1.66562    0.046
 6236.00    1.67953   1.66444    0.046
 6237.00    1.67653   1.66196    0.046
 6238.00    1.67159   1.65875    0.045
 6239.00    1.66330   1.65517    0.045
 6240.00    1.65543   1.65182    0.045
 6241.00    1.64820   1.64904    0.045
 6242.00    1.64396   1.64708    0.045
 6243.00    1.64373   1.64593    0.045
 6244.00    1.64806   1.64537    0.045
 6245.00    1.65773   1.64491    0.045
 6246.00    1.66493   1.64412    0.045
 6247.00    1.66957   1.64253    0.045
 6248.00    1.66568   1.63975    0.045
 6249.00    1.65397   1.63594    0.045
 6250.00    1.64675   1.63102    0.045
 6251.00    1.64313   1.62588    0.046
 6252.00    1.63538   1.62072    0.046
 6253.00    1.62469   1.61689    0.047
 6254.00    1.61818   1.61448    0.047
 6255.00    1.61426   1.61455    0.047
 6256.00    1.61540   1.61704    0.047
 6257.00    1.61929   1.62203    0.047
 6258.00    1.62015   1.62934    0.047
 6259.00    1.61959   1.63814    0.048
 6260.00    1.64830   1.64824    0.051
 6261.00    1.68894   1.65833    0.054
 6262.00    1.73042   1.66853    0.056
 6263.00    1.77220   1.67761    0.057
 6264.00    1.78211   1.68601    0.056
 6265.00    1.78267   1.69294    0.053
 6266.00    1.77069   1.69900    0.051
 6267.00    1.75566   1.70387    0.048
 6268.00    1.74309   1.70801    0.047
 6269.00    1.73100   1.71132    0.047
 6270.00    1.71859   1.71397    0.046
 6271.00    1.70613   1.71602    0.046
 6272.00    1.71178   1.71743    0.046
 6273.00    1.71947   1.71841    0.046
 6274.00    1.73560   1.71891    0.046
 6275.00    1.75237   1.71928    0.046
 6276.00    1.74511   1.71960    0.046
 6277.00    1.73688   1.72031    0.046
 6278.00    1.72155   1.72150    0.046
 6279.00    1.70643   1.72344    0.046
 6280.00    1.70159   1.72623    0.000
 6281.00    1.69789   1.72966    0.000
 6282.00    1.71336   1.73371    0.000
 6283.00    1.72949   1.73771    0.000
 6284.00    1.75260   1.74162    0.000
 6285.00    1.77389   1.74454    0.000
 6286.00    1.78151   1.74653    0.000
 6287.00    1.78766   1.74686    0.000
 6288.00    1.78535   1.74576    0.000
 6289.00    1.78082   1.74293    0.000
 6290.00    1.76624   1.73880    0.000
 6291.00    1.75328   1.73348    0.000
 6292.00    1.74636   1.72749    0.000
 6293.00    1.74104   1.72121    0.000
 6294.00    1.74065   1.71513    0.000
 6295.00    1.73907   1.70972    0.000
 6296.00    1.73434   1.70533    0.000
 6297.00    1.73091   1.70236    0.000
 6298.00    1.73040   1.70089    0.000
 6299.00    1.73131   1.70114    0.000
 6300.00    1.73500   1.70286    0.000
 6301.00    1.73255   1.70598    0.000
 6302.00    1.71959   1.70991    0.000
 6303.00    1.71179   1.71439    0.000
 6304.00    1.71169   1.71854    0.000
 6305.00    1.71442   1.72215    0.000
 6306.00    1.72086   1.72434    0.000
 6307.00    1.72927   1.72518    0.000
 6308.00    1.73995   1.72413    0.000
 6309.00    1.74613   1.72165    0.000
 6310.00    1.74769   1.71772    0.000
 6311.00    1.74309   1.71307    0.000
 6312.00    1.73294   1.70809    0.000
 6313.00    1.72418   1.70360    0.000
 6314.00    1.71653   1.70009    0.000
 6315.00    1.71049   1.69814    0.000
 6316.00    1.70558   1.69802    0.000
 6317.00    1.70250   1.69992    0.000
 6318.00    1.70053   1.70374    0.000
 6319.00    1.70359   1.70917    0.000
 6320.00    1.70934   1.71591    0.000
 6321.00    1.71470   1.72323    0.045
 6322.00    1.71987   1.73083    0.045
 6323.00    1.72013   1.73781    0.045
 6324.00    1.71843   1.74409    0.045
 6325.00    1.72335   1.74885    0.045
 6326.00    1.73052   1.75224    0.045
 6327.00    1.74054   1.75378    0.045
 6328.00    1.75139   1.75377    0.045
 6329.00    1.76730   1.75213    0.045
 6330.00    1.78441   1.74931    0.045
 6331.00    1.78686   1.74554    0.046
 6332.00    1.78650   1.74138    0.046
 6333.00    1.76472   1.73711    0.046
 6334.00    1.73976   1.73332    0.046
 6335.00    1.72691   1.73012    0.045
 6336.00    1.71537   1.72795    0.044
 6337.00    1.72353   1.72669    0.045
 6338.00    1.73308   1.72653    0.046
 6339.00    1.73837   1.72723    0.045
 6340.00    1.74351   1.72877    0.045
 6341.00    1.73555   1.73097    0.045
 6342.00    1.72771   1.73359    0.045
 6343.00    1.72595   1.73653    0.045
 6344.00    1.72507   1.73939    0.045
 6345.00    1.73826   1.74198    0.045
 6346.00    1.75165   1.74383    0.045
 6347.00    1.76712   1.74463    0.045
 6348.00    1.78056   1.74398    0.045
 6349.00    1.77934   1.74160    0.045
 6350.00    1.77760   1.73739    0.046
 6351.00    1.77292   1.73128    0.046
 6352.00    1.76796   1.72359    0.046
 6353.00    1.76177   1.71462    0.046
 6354.00    1.75358   1.70501    0.045
 6355.00    1.73808   1.69537    0.045
 6356.00    1.72154   1.68649    0.046
 6357.00    1.70180   1.67907    0.046
 6358.00    1.68423   1.67375    0.046
 6359.00    1.67228   1.67107    0.046
 6360.00    1.66430   1.67129    0.046
 6361.00    1.66517   1.67455    0.046
 6362.00    1.66997   1.68065    0.046
 6363.00    1.68239   1.68924    0.046
 6364.00    1.69557   1.69974    0.047
 6365.00    1.71007   1.71148    0.047
 6366.00    1.72464   1.72376    0.047
 6367.00    1.73934   1.73586    0.046
 6368.00    1.75481   1.74720    0.046
 6369.00    1.77127   1.75725    0.046
 6370.00    1.78276   1.76570    0.046
 6371.00    1.78857   1.77234    0.046
 6372.00    1.79035   1.77716    0.046
 6373.00    1.78807   1.78026    0.046
 6374.00    1.78229   1.78186    0.046
 6375.00    1.77339   1.78227    0.046
 6376.00    1.76724   1.78187    0.045
 6377.00    1.76322   1.78094    0.045
 6378.00    1.76572   1.77991    0.045
 6379.00    1.77269   1.77885    0.045
 6380.00    1.78630   1.77807    0.046
 6381.00    1.80391   1.77735    0.046
 6382.00    1.80967   1.77683    0.046
 6383.00    1.80918   1.77609    0.045
 6384.00    1.79589   1.77518    0.045
 6385.00    1.77675   1.77362    0.045
 6386.00    1.76739   1.77159    0.045
 6387.00    1.76187   1.76877    0.046
 6388.00    1.76029   1.76554    0.046
 6389.00    1.76004   1.76179    0.046
 6390.00    1.75145   1.75809    0.046
 6391.00    1.74051   1.75447    0.045
 6392.00    1.73281   1.75140    0.045
 6393.00    1.72587   1.74899    0.045
 6394.00    1.72061   1.74743    0.046
 6395.00    1.71566   1.74685    0.046
 6396.00    1.71482   1.74711    0.046
 6397.00    1.71458   1.74830    0.046
 6398.00    1.72172   1.75003    0.046
 6399.00    1.72962   1.75233    0.046
 6400.00    1.74299   1.75467    0.046
 6401.00    1.75673   1.75700    0.047
 6402.00    1.76255   1.75887    0.047
 6403.00    1.76812   1.76024    0.047
 6404.00    1.76439   1.76087    0.046
 6405.00    1.76034   1.76087    0.046
 6406.00    1.74638   1.76025    0.046
 6407.00    1.73345   1.75923    0.046
 6408.00    1.73581   1.75798    0.047
 6409.00    1.73901   1.75672    0.047
 6410.00    1.75034   1.75556    0.046
 6411.00    1.75957   1.75463    0.045
 6412.00    1.75404   1.75393    0.045
 6413.00    1.74989   1.75354    0.046
 6414.00    1.75320   1.75342    0.045
 6415.00    1.75694   1.75373    0.045
 6416.00    1.76259   1.75438    0.045
 6417.00    1.76654   1.75571    0.045
 6418.00    1.76443   1.75745    0.046
 6419.00    1.76270   1.75994    0.046
 6420.00    1.76207   1.76269    0.046
 6421.00    1.76267   1.76584    0.046
 6422.00    1.76639   1.76874    0.046
 6423.00    1.77011   1.77142    0.046
 6424.00    1.77382   1.77330    0.045
 6425.00    1.77282   1.77447    0.045
 6426.00    1.76284   1.77473    0.045
 6427.00    1.75410   1.77430    0.046
 6428.00    1.74742   1.77344    0.046
 6429.00    1.74288   1.77236    0.047
 6430.00    1.74143   1.77152    0.046
 6431.00    1.74341   1.77103    0.046
 6432.00    1.74978   1.77122    0.047
 6433.00    1.75282   1.77209    0.046
 6434.00    1.75211   1.77376    0.045
 6435.00    1.75552   1.77608    0.045
 6436.00    1.76302   1.77894    0.046
 6437.00    1.77211   1.78212    0.046
 6438.00    1.78258   1.78524    0.046
 6439.00    1.79230   1.78802    0.046
 6440.00    1.80144   1.78987    0.046
 6441.00    1.81291   1.79063    0.046
 6442.00    1.82595   1.78976    0.046
 6443.00    1.81800   1.78748    0.045
 6444.00    1.79756   1.78355    0.045
 6445.00    1.78056   1.77880    0.046
 6446.00    1.76533   1.77327    0.046
 6447.00    1.75357   1.76821    0.046
 6448.00    1.74338   1.76369    0.046
 6449.00    1.73652   1.76078    0.046
 6450.00    1.73095   1.75927    0.047
 6451.00    1.73531   1.75961    0.047
 6452.00    1.74293   1.76125    0.047
 6453.00    1.74409   1.76404    0.046
 6454.00    1.74347   1.76732    0.046
 6455.00    1.74561   1.77063    0.046
 6456.00    1.74838   1.77365    0.046
 6457.00    1.74828   1.77598    0.046
 6458.00    1.74765   1.77783    0.045
 6459.00    1.74223   1.77893    0.046
 6460.00    1.73613   1.77999    0.046
 6461.00    1.73025   1.78064    0.046
 6462.00    1.72440   1.78174    0.045
 6463.00    1.72243   1.78273    0.045
 6464.00    1.72070   1.78429    0.044
 6465.00    1.73751   1.78573    0.045
 6466.00    1.75487   1.78743    0.045
 6467.00    1.77260   1.78883    0.045
 6468.00    1.79012   1.79003    0.045
 6469.00    1.80178   1.79082    0.045
 6470.00    1.81277   1.79104    0.046
 6471.00    1.81438   1.79085    0.046
 6472.00    1.81666   1.78993    0.046
 6473.00    1.82522   1.78860    0.046
 6474.00    1.83194   1.78654    0.047
 6475.00    1.82620   1.78409    0.047
 6476.00    1.81849   1.78106    0.047
 6477.00    1.80042   1.77774    0.046
 6478.00    1.78324   1.77414    0.046
 6479.00    1.76981   1.77037    0.046
 6480.00    1.75749   1.76651    0.047
 6481.00    1.74909   1.76237    0.046
 6482.00    1.74547   1.75786    0.045
 6483.00    1.75588   1.75252    0.045
 6484.00    1.76582   1.74604    0.045
 6485.00    1.77453   1.73797    0.046
 6486.00    1.77768   1.72802    0.046
 6487.00    1.76883   1.71614    0.045
 6488.00    1.75500   1.70255    0.045
 6489.00    1.73184   1.68780    0.044
 6490.00    1.70732   1.67283    0.044
 6491.00    1.68055   1.65857    0.045
 6492.00    1.66017   1.64646    0.045
 6493.00    1.64894   1.63719    0.045
 6494.00    1.64093   1.63210    0.045
 6495.00    1.63695   1.63115    0.045
 6496.00    1.63404   1.63492    0.045
 6497.00    1.63230   1.64259    0.045
 6498.00    1.63990   1.65385    0.045
 6499.00    1.65665   1.66746    0.045
 6500.00    1.67792   1.68250    0.045
 6501.00    1.70310   1.69791    0.045
 6502.00    1.72211   1.71268    0.046
 6503.00    1.73642   1.72622    0.046
 6504.00    1.74741   1.73788    0.046
 6505.00    1.75618   1.74754    0.045
 6506.00    1.76592   1.75499    0.045
 6507.00    1.77624   1.76044    0.046
 6508.00    1.78482   1.76397    0.046
 6509.00    1.79251   1.76592    0.046
 6510.00    1.78694   1.76660    0.045
 6511.00    1.77551   1.76631    0.045
 6512.00    1.76061   1.76552    0.045
 6513.00    1.74441   1.76439    0.045
 6514.00    1.73729   1.76351    0.045
 6515.00    1.73311   1.76282    0.045
 6516.00    1.74412   1.76283    0.046
 6517.00    1.75923   1.76325    0.045
 6518.00    1.77290   1.76440    0.045
 6519.00    1.78625   1.76580    0.045
 6520.00    1.79066   1.76755    0.046
 6521.00    1.79350   1.76922    0.046
 6522.00    1.79226   1.77076    0.046
 6523.00    1.79048   1.77197    0.046
 6524.00    1.78298   1.77281    0.046
 6525.00    1.77492   1.77335    0.046
 6526.00    1.77373   1.77364    0.046
 6527.00    1.77294   1.77390    0.046
 6528.00    1.78151   1.77420    0.000
 6529.00    1.79035   1.77473    0.000
 6530.00    1.80467   1.77554    0.000
 6531.00    1.81857   1.77659    0.000
 6532.00    1.82196   1.77787    0.000
 6533.00    1.82427   1.77907    0.000
 6534.00    1.81224   1.78011    0.000
 6535.00    1.80102   1.78052    0.000
 6536.00    1.79705   1.78023    0.000
 6537.00    1.79588   1.77886    0.000
 6538.00    1.81306   1.77636    0.000
 6539.00    1.83042   1.77270    0.000
 6540.00    1.84866   1.76788    0.000
 6541.00    1.86119   1.76226    0.000
 6542.00    1.85018   1.75580    0.000
 6543.00    1.83783   1.74904    0.000
 6544.00    1.82083   1.74186    0.000
 6545.00    1.80942   1.73466    0.000
 6546.00    1.81408   1.72720    0.000
 6547.00    1.81876   1.71955    0.000
 6548.00    1.82347   1.71135    0.000
 6549.00    1.82272   1.70246    0.000
 6550.00    1.81038   1.69248    0.000
 6551.00    1.79411   1.68123    0.000
 6552.00    1.77063   1.66852    0.000
 6553.00    1.74583   1.65432    0.000
 6554.00    1.71893   1.63891    0.000
 6555.00    1.69671   1.62248    0.000
 6556.00    1.68111   1.60611    0.000
 6557.00    1.66583   1.59016    0.000
 6558.00    1.65097   1.57638    0.000
 6559.00    1.64980   1.56496    0.000
 6560.00    1.66363   1.55778    0.000
 6561.00    1.67141   1.55446    0.000
 6562.00    1.67334   1.55619    0.000
 6563.00    1.67035   1.56183    0.000
 6564.00    1.66316   1.57146    0.000
 6565.00    1.66506   1.58352    0.000
 6566.00    1.67378   1.59746    0.000
 6567.00    1.68179   1.61171    0.000
 6568.00    1.68932   1.62592    0.000
 6569.00    1.68968   1.63893    0.000
 6570.00    1.68589   1.65111    0.000
 6571.00    1.68309   1.66167    0.000
 6572.00    1.68079   1.67153    0.000
 6573.00    1.68848   1.68007    0.000
 6574.00    1.70051   1.68832    0.000
 6575.00    1.72421   1.69560    0.000
 6576.00    1.75227   1.70271    0.000
 6577.00    1.78137   1.70897    0.000
 6578.00    1.81080   1.71489    0.000
 6579.00    1.83308   1.71988    0.000
 6580.00    1.85347   1.72424    0.000
 6581.00    1.88150   1.72749    0.000
 6582.00    1.91117   1.72985    0.000
 6583.00    1.92613   1.73089    0.000
 6584.00    1.93857   1.73093    0.000
 6585.00    1.92251   1.72958    0.000
 6586.00    1.90276   1.72735    0.000
 6587.00    1.86994   1.72401    0.000
 6588.00    1.83593   1.72030    0.000
 6589.00    1.80215   1.71625    0.000
 6590.00    1.76838   1.71263    0.000
 6591.00    1.75029   1.70958    0.000
 6592.00    1.73270   1.70770    0.000
 6593.00    1.73024   1.70696    0.000
 6594.00    1.72770   1.70754    0.000
 6595.00    1.72309   1.70914    0.000
 6596.00    1.71926   1.71158    0.000
 6597.00    1.72533   1.71429    0.000
 6598.00    1.73126   1.71701    0.000
 6599.00    1.73610   1.71917    0.000
 6600.00    1.74010   1.72074    0.000
 6601.00    1.73884   1.72141    0.000
 6602.00    1.73913   1.72146    0.000
 6603.00    1.74707   1.72098    0.000
 6604.00    1.75241   1.72039    0.000
 6605.00    1.74726   1.72008    0.000
 6606.00    1.74171   1.72028    0.000
 6607.00    1.73485   1.72149    0.000
 6608.00    1.72805   1.72347    0.000
 6609.00    1.72141   1.72665    0.045
 6610.00    1.71980   1.73032    0.045
 6611.00    1.73037   1.73474    0.045
 6612.00    1.74123   1.73906    0.046
 6613.00    1.75274   1.74329    0.046
 6614.00    1.75801   1.74679    0.046
 6615.00    1.75195   1.74939    0.046
 6616.00    1.75226   1.75092    0.046
 6617.00    1.76269   1.75105    0.046
 6618.00    1.76690   1.75015    0.046
 6619.00    1.76244   1.74779    0.046
 6620.00    1.76040   1.74472    0.046
 6621.00    1.76132   1.74054    0.046
 6622.00    1.75007   1.73604    0.046
 6623.00    1.72570   1.73097    0.046
 6624.00    1.70501   1.72590    0.045
 6625.00    1.68782   1.72080    0.045
 6626.00    1.68508   1.71592    0.045
 6627.00    1.69448   1.71148    0.045
 6628.00    1.70590   1.70743    0.045
 6629.00    1.71882   1.70421    0.045
 6630.00    1.71506   1.70155    0.046
 6631.00    1.70048   1.69989    0.046
 6632.00    1.68896   1.69889    0.045
 6633.00    1.67919   1.69883    0.045
 6634.00    1.68761   1.69931    0.045
 6635.00    1.70503   1.70037    0.046
 6636.00    1.71507   1.70166    0.046
 6637.00    1.72194   1.70314    0.045
 6638.00    1.71663   1.70457    0.046
 6639.00    1.70684   1.70591    0.046
 6640.00    1.71449   1.70707    0.047
 6641.00    1.72756   1.70813    0.047
 6642.00    1.72322   1.70904    0.047
 6643.00    1.71439   1.70999    0.046
 6644.00    1.70420   1.71080    0.046
 6645.00    1.69372   1.71171    0.047
 6646.00    1.70247   1.71244    0.046
 6647.00    1.71442   1.71317    0.046
 6648.00    1.71988   1.71358    0.046
 6649.00    1.72453   1.71377    0.046
 6650.00    1.72016   1.71350    0.046
 6651.00    1.71500   1.71268    0.046
 6652.00    1.70722   1.71141    0.046
 6653.00    1.69930   1.70932    0.045
 6654.00    1.69904   1.70686    0.046
 6655.00    1.69904   1.70354    0.046
 6656.00    1.70745   1.70007    0.046
 6657.00    1.71488   1.69599    0.046
 6658.00    1.70157   1.69218    0.046
 6659.00    1.68789   1.68834    0.046
 6660.00    1.66992   1.68525    0.046
 6661.00    1.65211   1.68279    0.045
 6662.00    1.63561   1.68140    0.046
 6663.00    1.62224   1.68105    0.046
 6664.00    1.62819   1.68174    0.046
 6665.00    1.63704   1.68329    0.046
 6666.00    1.66002   1.68540    0.046
 6667.00    1.67990   1.68774    0.045
 6668.00    1.68750   1.68981    0.046
 6669.00    1.69173   1.69153    0.046
 6670.00    1.68485   1.69241    0.046
 6671.00    1.67927   1.69251    0.046
 6672.00    1.67727   1.69165    0.046
 6673.00    1.67599   1.69029    0.046
 6674.00    1.67638   1.68851    0.046
 6675.00    1.67344   1.68679    0.046
 6676.00    1.66363   1.68546    0.046
 6677.00    1.65634   1.68474    0.045
 6678.00    1.65356   1.68493    0.045
 6679.00    1.65420   1.68588    0.045
 6680.00    1.66018   1.68771    0.046
 6681.00    1.66761   1.69004    0.046
 6682.00    1.67702   1.69270    0.046
 6683.00    1.68636   1.69535    0.046
 6684.00    1.69560   1.69767    0.046
 6685.00    1.70257   1.69952    0.046
 6686.00    1.70712   1.70047    0.046
 6687.00    1.69750   1.70083    0.046
 6688.00    1.67457   1.70020    0.046
 6689.00    1.65907   1.69903    0.046
 6690.00    1.64974   1.69713    0.046
 6691.00    1.65150   1.69495    0.046
 6692.00    1.66135   1.69248    0.046
 6693.00    1.66178   1.69004    0.047
 6694.00    1.65619   1.68778    0.047
 6695.00    1.64779   1.68582    0.046
 6696.00    1.63782   1.68437    0.000
 6697.00    1.63950   1.68324    0.000
 6698.00    1.64687   1.68258    0.000
 6699.00    1.65810   1.68210    0.000
 6700.00    1.67097   1.68174    0.000
 6701.00    1.67591   1.68138    0.000
 6702.00    1.67799   1.68073    0.000
 6703.00    1.67250   1.67977    0.000
 6704.00    1.66471   1.67827    0.000
 6705.00    1.65922   1.67614    0.000
 6706.00    1.65433   1.67336    0.000
 6707.00    1.65180   1.66983    0.000
 6708.00    1.64975   1.66582    0.000
 6709.00    1.64946   1.66129    0.000
 6710.00    1.64946   1.65667    0.000
 6711.00    1.66309   1.65223    0.000
 6712.00    1.67838   1.64809    0.000
 6713.00    1.68718   1.64494    0.000
 6714.00    1.69544   1.64245    0.000
 6715.00    1.69292   1.64164    0.000
 6716.00    1.68990   1.64164    0.000
 6717.00    1.69424   1.64333    0.000
 6718.00    1.69844   1.64558    0.000
 6719.00    1.68886   1.64913    0.000
 6720.00    1.67933   1.65294    0.000
 6721.00    1.67048   1.65723    0.000
 6722.00    1.66286   1.66142    0.000
 6723.00    1.66940   1.66541    0.000
 6724.00    1.67721   1.66906    0.000
 6725.00    1.69513   1.67204    0.000
 6726.00    1.71012   1.67469    0.000
 6727.00    1.70758   1.67644    0.000
 6728.00    1.70439   1.67788    0.000
 6729.00    1.69812   1.67826    0.000
 6730.00    1.69535   1.67825    0.000
 6731.00    1.70606   1.67733    0.000
 6732.00    1.71379   1.67607    0.000
 6733.00    1.71188   1.67423    0.000
 6734.00    1.70643   1.67190    0.000
 6735.00    1.69135   1.66929    0.000
 6736.00    1.67122   1.66646    0.000
 6737.00    1.63929   1.66378    0.000
 6738.00    1.61603   1.66081    0.000
 6739.00    1.61031   1.65830    0.000
 6740.00    1.61068   1.65558    0.000
 6741.00    1.62177   1.65354    0.000
 6742.00    1.62943   1.65128    0.000
 6743.00    1.63182   1.64985    0.000
 6744.00    1.63093   1.64850    0.000
 6745.00    1.62559   1.64761    0.000
 6746.00    1.61760   1.64754    0.000
 6747.00    1.60644   1.64778    0.000
 6748.00    1.59503   1.64924    0.000
 6749.00    1.58336   1.65096    0.000
 6750.00    1.57714   1.65411    0.000
 6751.00    1.57595   1.65737    0.000
 6752.00    1.57976   1.66177    0.000
 6753.00    1.58764   1.66611    0.049
 6754.00    1.59087   1.67077    0.050
 6755.00    1.59075   1.67522    0.051
 6756.00    1.59460   1.67909    0.052
 6757.00    1.60095   1.68244    0.051
 6758.00    1.61988   1.68450    0.052
 6759.00    1.64573   1.68581    0.052
 6760.00    1.69283   1.68577    0.053
 6761.00    1.75012   1.68520    0.054
 6762.00    1.80730   1.68361    0.055
 6763.00    1.86443   1.68185    0.056
 6764.00    1.88380   1.67982    0.056
 6765.00    1.88982   1.67824    0.056
 6766.00    1.88578   1.67711    0.055
 6767.00    1.87874   1.67685    0.055
 6768.00    1.88308   1.67739    0.054
 6769.00    1.89024   1.67875    0.054
 6770.00    1.86312   1.68078    0.053
 6771.00    1.82912   1.68329    0.053
 6772.00    1.79058   1.68576    0.052
 6773.00    1.75132   1.68812    0.051
 6774.00    1.73736   1.68960    0.051
 6775.00    1.72636   1.69032    0.051
 6776.00    1.70008   1.68969    0.050
 6777.00    1.67260   1.68816    0.049
 6778.00    1.70291   1.68547    0.050
 6779.00    1.73574   1.68220    0.052
 6780.00    1.72865   1.67853    0.052
 6781.00    1.72053   1.67466    0.052
 6782.00    1.68365   1.67131    0.051
 6783.00    1.64958   1.66814    0.050
 6784.00    1.66635   1.66604    0.050
 6785.00    1.68275   1.66432    0.050
 6786.00    1.69500   1.66375    0.050
 6787.00    1.70630   1.66341    0.050
 6788.00    1.71025   1.66386    0.051
 6789.00    1.71649   1.66458    0.051
 6790.00    1.73602   1.66559    0.052
 6791.00    1.74665   1.66674    0.052
 6792.00    1.71610   1.66802    0.052
 6793.00    1.69320   1.66930    0.051
 6794.00    1.69915   1.67074    0.051
 6795.00    1.70308   1.67208    0.050
 6796.00    1.70062   1.67353    0.050
 6797.00    1.70047   1.67480    0.050
 6798.00    1.70652   1.67598    0.049
 6799.00    1.70945   1.67700    0.049
 6800.00    1.70523   1.67788    0.049
 6801.00    1.70917   1.67830    0.050
 6802.00    1.72932   1.67867    0.050
 6803.00    1.73763   1.67871    0.051
 6804.00    1.72542   1.67850    0.050
 6805.00    1.71350   1.67826    0.050
 6806.00    1.70203   1.67795    0.050
 6807.00    1.68774   1.67759    0.050
 6808.00    1.66966   1.67738    0.050
 6809.00    1.66106   1.67717    0.049
 6810.00    1.66358   1.67752    0.050
 6811.00    1.66935   1.67800    0.050
 6812.00    1.67848   1.67881    0.051
 6813.00    1.69804   1.67974    0.052
 6814.00    1.72713   1.68093    0.052
 6815.00    1.73517   1.68247    0.052
 6816.00    1.72628   1.68413    0.052
 6817.00    1.71770   1.68604    0.051
 6818.00    1.70935   1.68760    0.050
 6819.00    1.71179   1.68937    0.049
 6820.00    1.72095   1.69051    0.049
 6821.00    1.73542   1.69176    0.049
 6822.00    1.75279   1.69209    0.049
 6823.00    1.75826   1.69268    0.049
 6824.00    1.75812   1.69260    0.049
 6825.00    1.74674   1.69267    0.049
 6826.00    1.73078   1.69198    0.049
 6827.00    1.71945   1.69123    0.050
 6828.00    1.70972   1.69011    0.051
 6829.00    1.70101   1.68876    0.051
 6830.00    1.69260   1.68691    0.051
 6831.00    1.69740   1.68436    0.051
 6832.00    1.70541   1.68157    0.052
 6833.00    1.70108   1.67784    0.051
 6834.00    1.69435   1.67410    0.050
 6835.00    1.69363   1.66978    0.050
 6836.00    1.69382   1.66589    0.050
 6837.00    1.70289   1.66236    0.051
 6838.00    1.71295   1.65969    0.052
 6839.00    1.69395   1.65797    0.053
 6840.00    1.67277   1.65704    0.053
 6841.00    1.64493   1.65726    0.051
 6842.00    1.61683   1.65823    0.050
 6843.00    1.60324   1.65993    0.049
 6844.00    1.59069   1.66176    0.048
 6845.00    1.61571   1.66370    0.048
 6846.00    1.64032   1.66516    0.048
 6847.00    1.65800   1.66608    0.048
 6848.00    1.67454   1.66599    0.049
 6849.00    1.67927   1.66474    0.049
 6850.00    1.68242   1.66303    0.049
 6851.00    1.67387   1.66071    0.049
 6852.00    1.66393   1.65787    0.049
 6853.00    1.64607   1.65508    0.049
 6854.00    1.63112   1.65219    0.049
 6855.00    1.62931   1.64951    0.050
 6856.00    1.62681   1.64739    0.050
 6857.00    1.62174   1.64613    0.049
 6858.00    1.61406   1.64556    0.049
 6859.00    1.59828   1.64526    0.050
 6860.00    1.59280   1.64549    0.050
 6861.00    1.61441   1.64564    0.050
 6862.00    1.63269   1.64600    0.049
 6863.00    1.64344   1.64644    0.049
 6864.00    1.65563   1.64721    0.049
 6865.00    1.67066   1.64757    0.049
 6866.00    1.68328   1.64801    0.050
 6867.00    1.69180   1.64840    0.051
 6868.00    1.68962   1.64915    0.051
 6869.00    1.67146   1.64983    0.051
 6870.00    1.66017   1.65091    0.050
 6871.00    1.65793   1.65217    0.051
 6872.00    1.65627   1.65378    0.050
 6873.00    1.65528   1.65533    0.050
 6874.00    1.64824   1.65711    0.049
 6875.00    1.63502   1.65865    0.049
 6876.00    1.62970   1.66019    0.049
 6877.00    1.63149   1.66172    0.049
 6878.00    1.62280   1.66349    0.048
 6879.00    1.60580   1.66555    0.048
 6880.00    1.59377   1.66756    0.048
 6881.00    1.58522   1.67033    0.048
 6882.00    1.60318   1.67315    0.048
 6883.00    1.63739   1.67658    0.049
 6884.00    1.65584   1.68012    0.049
 6885.00    1.66589   1.68407    0.049
 6886.00    1.66642   1.68775    0.049
 6887.00    1.66254   1.69133    0.049
 6888.00    1.65573   1.69470    0.049
 6889.00    1.64774   1.69737    0.049
 6890.00    1.64913   1.69982    0.049
 6891.00    1.65371   1.70155    0.050
 6892.00    1.64410   1.70320    0.050
 6893.00    1.63043   1.70414    0.050
 6894.00    1.63110   1.70515    0.050
 6895.00    1.63515   1.70576    0.050
 6896.00    1.63119   1.70674    0.050
 6897.00    1.62569   1.70742    0.049
 6898.00    1.64163   1.70850    0.049
 6899.00    1.66073   1.70945    0.049
 6900.00    1.66458   1.71041    0.050
 6901.00    1.66677   1.71158    0.051
 6902.00    1.66597   1.71221    0.050
 6903.00    1.66496   1.71310    0.050
 6904.00    1.66136   1.71303    0.050
 6905.00    1.65767   1.71299    0.049
 6906.00    1.65027   1.71197    0.049
 6907.00    1.64303   1.71084    0.049
 6908.00    1.64193   1.70885    0.049
 6909.00    1.64057   1.70693    0.049
 6910.00    1.63496   1.70485    0.049
 6911.00    1.63001   1.70254    0.049
 6912.00    1.63155   1.70105    0.049
 6913.00    1.63268   1.69905    0.050
 6914.00    1.63076   1.69818    0.051
 6915.00    1.63090   1.69693    0.051
 6916.00    1.64238   1.69642    0.050
 6917.00    1.65126   1.69564    0.050
 6918.00    1.64865   1.69483    0.051
 6919.00    1.64605   1.69400    0.051
 6920.00    1.64356   1.69282    0.050
 6921.00    1.63563   1.69200    0.050
 6922.00    1.61119   1.69106    0.049
 6923.00    1.59375   1.69047    0.049
 6924.00    1.59443   1.69002    0.049
 6925.00    1.59634   1.68965    0.049
 6926.00    1.60097   1.68974    0.049
 6927.00    1.60253   1.68981    0.049
 6928.00    1.59820   1.69051    0.049
 6929.00    1.59711   1.69129    0.050
 6930.00    1.60144   1.69243    0.050
 6931.00    1.60669   1.69394    0.050
 6932.00    1.61328   1.69511    0.051
 6933.00    1.62167   1.69651    0.051
 6934.00    1.63238   1.69742    0.052
 6935.00    1.63788   1.69845    0.052
 6936.00    1.63743   1.69882    0.052
 6937.00    1.64423   1.69889    0.052
 6938.00    1.65833   1.69830    0.051
 6939.00    1.66284   1.69718    0.051
 6940.00    1.65884   1.69597    0.051
 6941.00    1.64673   1.69448    0.051
 6942.00    1.62829   1.69319    0.050
 6943.00    1.62180   1.69215    0.050
 6944.00    1.62353   1.69111    0.050
 6945.00    1.61944   1.69019    0.051
 6946.00    1.61183   1.68966    0.051
 6947.00    1.60714   1.68921    0.051
 6948.00    1.60399   1.68930    0.050
 6949.00    1.61659   1.68998    0.051
 6950.00    1.63637   1.69101    0.051
 6951.00    1.63255   1.69272    0.051
 6952.00    1.61947   1.69475    0.051
 6953.00    1.61550   1.69746    0.051
 6954.00    1.61457   1.70002    0.052
 6955.00    1.61907   1.70335    0.052
 6956.00    1.62509   1.70641    0.052
 6957.00    1.62788   1.70990    0.052
 6958.00    1.62992   1.71307    0.052
 6959.00    1.64008   1.71612    0.051
 6960.00    1.65175   1.71881    0.051
 6961.00    1.64540   1.72103    0.051
 6962.00    1.63647   1.72277    0.051
 6963.00    1.63812   1.72395    0.051
 6964.00    1.64086   1.72475    0.051
 6965.00    1.63844   1.72427    0.051
 6966.00    1.63567   1.72311    0.051
 6967.00    1.65273   1.72080    0.052
 6968.00    1.67041   1.71777    0.052
 6969.00    1.66161   1.71423    0.052
 6970.00    1.65259   1.70949    0.052
 6971.00    1.63700   1.70441    0.052
 6972.00    1.62186   1.69884    0.052
 6973.00    1.61340   1.69385    0.052
 6974.00    1.60322   1.68922    0.053
 6975.00    1.57665   1.68584    0.052
 6976.00    1.55365   1.68473    0.052
 6977.00    1.55552   1.68504    0.052
 6978.00    1.56072   1.68679    0.052
 6979.00    1.58382   1.68983    0.052
 6980.00    1.60176   1.69391    0.051
 6981.00    1.59751   1.69865    0.051
 6982.00    1.59672   1.70372    0.051
 6983.00    1.60826   1.70866    0.051
 6984.00    1.61705   1.71319    0.051
 6985.00    1.61766   1.71702    0.051
 6986.00    1.61467   1.72019    0.052
 6987.00    1.60253   1.72284    0.051
 6988.00    1.59803   1.72451    0.051
 6989.00    1.61023   1.72548    0.052
 6990.00    1.62110   1.72547    0.052
 6991.00    1.62944   1.72470    0.052
 6992.00    1.63490   1.72365    0.053
 6993.00    1.63558   1.72183    0.053
 6994.00    1.63667   1.71969    0.053
 6995.00    1.63836   1.71692    0.053
 6996.00    1.64073   1.71399    0.053
 6997.00    1.64399   1.71156    0.054
 6998.00    1.64077   1.70915    0.054
 6999.00    1.63027   1.70699    0.053
 7000.00    1.61700   1.70450    0.053
 7001.00    1.60096   1.70273    0.053
 7002.00    1.60335   1.70121    0.053
 7003.00    1.62188   1.70022    0.054
 7004.00    1.62383   1.69940    0.054
 7005.00    1.61301   1.69880    0.054
 7006.00    1.61568   1.69823    0.056
 7007.00    1.62748   1.69718    0.058
 7008.00    1.61841   1.69636    0.059
 7009.00    1.59694   1.69535    0.058
 7010.00    1.59652   1.69432    0.058
 7011.00    1.60699   1.69277    0.058
 7012.00    1.59721   1.69105    0.058
 7013.00    1.57834   1.68998    0.059
 7014.00    1.56569   1.69039    0.059
 7015.00    1.55545   1.69077    0.058
 7016.00    1.55913   1.69143    0.058
 7017.00    1.56739   1.69220    0.058
 7018.00    1.57408   1.69327    0.058
 7019.00    1.58035   1.69403    0.057
 7020.00    1.57042   1.69526    0.058
 7021.00    1.55683   1.69686    0.058
 7022.00    1.57217   1.69926    0.058
 7023.00    1.59273   1.70128    0.057
 7024.00    1.58764   1.70356    0.057
 7025.00    1.57900   1.70586    0.057
 7026.00    1.58689   1.70844    0.057
 7027.00    1.59641   1.71100    0.057
 7028.00    1.59160   1.71343    0.058
 7029.00    1.58589   1.71581    0.058
 7030.00    1.58793   1.71834    0.059
 7031.00    1.59016   1.72097    0.060
 7032.00    1.58553   1.72395    0.060
 7033.00    1.58118   1.72712    0.061
 7034.00    1.58444   1.72959    0.062
 7035.00    1.58909   1.73322    0.062
 7036.00    1.61334   1.73817    0.063
 7037.00    1.63493   1.74316    0.062
 7038.00    1.63206   1.74815    0.061
 7039.00    1.62770   1.75257    0.060
 7040.00    1.61328   1.75670    0.059
 7041.00    1.60611   1.75939    0.059
 7042.00    1.63692   1.76197    0.059
 7043.00    1.66420   1.76322    0.059
 7044.00    1.67660   1.76288    0.059
 7045.00    1.68280   1.76072    0.059
 7046.00    1.66743   1.75619    0.059
 7047.00    1.64925   1.75018    0.059
 7048.00    1.62287   1.74180    0.060
 7049.00    1.60226   1.73190    0.060
 7050.00    1.59609   1.72147   -2.000
 7051.00    1.60269   1.71032   -2.000
 7052.00    1.63675   1.69967   -2.000
 7053.00    1.65161   1.68899   -2.000
 7054.00    1.63060   1.67898   -2.000
 7055.00    1.63279   1.66909   -2.000
 7056.00    1.67279   1.66016   -2.000
 7057.00    1.69407   1.65249   -2.000
 7058.00    1.68856   1.64637   -2.000
 7059.00    1.69014   1.64094   -2.000
 7060.00    1.70065   1.63695   -2.000
 7061.00    1.70152   1.63399   -2.000
 7062.00    1.69170   1.63148   -2.000
 7063.00    1.70686   1.63015   -2.000
 7064.00    1.74647   1.62941   -2.000
 7065.00    1.75532   1.63014   -2.000
 7066.00    1.73767   1.63227   -2.000
 7067.00    1.70782   1.63527   -2.000
 7068.00    1.66872   1.63848   -2.000
 7069.00    1.65871   1.64210   -2.000
 7070.00    1.66812   1.64598   -2.000
 7071.00    1.69488   1.64938   -2.000
 7072.00    1.73180   1.65254   -2.000
 7073.00    1.76072   1.65448   -2.000
 7074.00    1.78556   1.65578   -2.000
 7075.00    1.80360   1.65531   -2.000
 7076.00    1.81864   1.65353   -2.000
 7077.00    1.78810   1.65034   -2.000
 7078.00    1.74028   1.64501   -2.000
 7079.00    1.73423   1.63806   -2.000
 7080.00    1.74163   1.62942   -2.000
 7081.00    1.73761   1.62007   -2.000
 7082.00    1.73051   1.61111   -2.000
 7083.00    1.72244   1.60165   -2.000
 7084.00    1.71417   1.59249   -2.000
 7085.00    1.66923   1.58398   -2.000
 7086.00    1.61784   1.57644   -2.000
 7087.00    1.60351   1.56983   -2.000
 7088.00    1.59415   1.56539   -2.000
 7089.00    1.60674   1.56124   -2.000
 7090.00    1.62142   1.55941   -2.000
 7091.00    1.61547   1.55823   -2.000
 7092.00    1.60831   1.55832   -2.000
 7093.00    1.59732   1.55991   -2.000
 7094.00    1.58633   1.56137   -2.000
 7095.00    1.58839   1.56467   -2.000
 7096.00    1.59001   1.56675   -2.000
 7097.00    1.58082   1.56999   -2.000
 7098.00    1.57157   1.57188   -2.000
 7099.00    1.56150   1.57435   -2.000
 7100.00    1.54718   1.57614   -2.000
 7101.00    1.49528   1.57798   -2.000
 7102.00    1.45223   1.57894   -2.000
 7103.00    1.46696   1.57926   -2.000
 7104.00    1.47894   1.57946   -2.000
 7105.00    1.47689   1.57950   -2.000
 7106.00    1.47492   1.57927   -2.000
 7107.00    1.47329   1.57863   -2.000
 7108.00    1.47556   1.57850   -2.000
 7109.00    1.49115   1.57839   -2.000
 7110.00    1.49996   1.57893   -2.000
 7111.00    1.48934   1.57902   -2.000
 7112.00    1.48321   1.57972   -2.000
 7113.00    1.48814   1.57980   -2.000
 7114.00    1.49089   1.57961   -2.000
 7115.00    1.48904   1.57941   -2.000
 7116.00    1.50513   1.57813   -2.000
 7117.00    1.55419   1.57714   -2.000
 7118.00    1.57926   1.57438   -2.000
 7119.00    1.56577   1.57212   -2.000
 7120.00    1.57176   1.56920   -2.000
 7121.00    1.60522   1.56544   -2.000
 7122.00    1.63540   1.56167   -2.000
 7123.00    1.66152   1.55726   -2.000
 7124.00    1.63510   1.55405   -2.000
 7125.00    1.55122   1.55033   -2.000
 7126.00    1.52208   1.54765   -2.000
 7127.00    1.54573   1.54506   -2.000
 7128.00    1.56252   1.54448   -2.000
 7129.00    1.57350   1.54435   -2.000
 7130.00    1.58304   1.54565   -2.000
 7131.00    1.59151   1.54773   -2.000
 7132.00    1.58569   1.54978   -2.000
 7133.00    1.57046   1.55293   -2.000
 7134.00    1.52899   1.55549   -2.000
 7135.00    1.47240   1.55823   -2.000
 7136.00    1.46178   1.56044   -2.000
 7137.00    1.47424   1.56284   -2.000
 7138.00    1.49746   1.56433   -2.000
 7139.00    1.52536   1.56551   -2.000
 7140.00    1.54820   1.56635   -2.000
 7141.00    1.56916   1.56631   -2.000
 7142.00    1.54377   1.56638   -2.000
 7143.00    1.50373   1.56601   -2.000
 7144.00    1.49390   1.56540   -2.000
 7145.00    1.49203   1.56575   -2.000
 7146.00    1.50153   1.56639   -2.000
 7147.00    1.51349   1.56767   -2.000
 7148.00    1.50663   1.56994   -2.000
 7149.00    1.49656   1.57252   -2.000
 7150.00    1.48879   1.57499   -2.000
 7151.00    1.48132   1.57740   -2.000
 7152.00    1.49656   1.57936   -2.000
 7153.00    1.51387   1.58208   -2.000
 7154.00    1.50470   1.58333   -2.000
 7155.00    1.49407   1.58456   -2.000
 7156.00    1.48042   1.58470   -2.000
 7157.00    1.46687   1.58476   -2.000
 7158.00    1.46949   1.58466   -2.000
 7159.00    1.47505   1.58397   -2.000
 7160.00    1.54759   1.58342   -2.000
 7161.00    1.61534   1.58236   -2.000
 7162.00    1.62292   1.58280   -2.000
 7163.00    1.62825   1.58354   -2.000
 7164.00    1.61441   1.58589   -2.000
 7165.00    1.59976   1.58821   -2.000
 7166.00    1.57995   1.59057   -2.000
 7167.00    1.57303   1.59326   -2.000
 7168.00    1.63010   1.59590   -2.000
 7169.00    1.67196   1.59856   -2.000
 7170.00    1.65262   1.60044   -2.000
 7171.00    1.62789   1.60156   -2.000
 7172.00    1.58516   1.60146   -2.000
 7173.00    1.55052   1.60126   -2.000
 7174.00    1.53867   1.60057   -2.000
 7175.00    1.53753   1.59881   -2.000
 7176.00    1.56224   1.59625   -2.000
 7177.00    1.57884   1.59306   -2.000
 7178.00    1.57857   1.58995   -2.000
 7179.00    1.58353   1.58756   -2.000
 7180.00    1.59795   1.58490   -2.000
 7181.00    1.57862   1.58235   -2.000
 7182.00    1.50586   1.57982   -2.000
 7183.00    1.46488   1.57674   -2.000
 7184.00    1.46808   1.57421   -2.000
 7185.00    1.45645   1.57241   -2.000
 7186.00    1.42671   1.57091   -2.000
 7187.00    1.42262   1.57063   -2.000
 7188.00    1.44619   1.57023   -2.000
 7189.00    1.48003   1.57080   -2.000
 7190.00    1.52364   1.57182   -2.000
 7191.00    1.53623   1.57334   -2.000
 7192.00    1.52282   1.57514   -2.000
 7193.00    1.49482   1.57660   -2.000
 7194.00    1.45603   1.57863   -2.000
 7195.00    1.43930   1.58033   -2.000
 7196.00    1.43685   1.58230   -2.000
 7197.00    1.43667   1.58398   -2.000
 7198.00    1.43776   1.58495   -2.000
 7199.00    1.45235   1.58585   -2.000
 7200.00    1.47362   1.58623   -2.000
 7201.00    1.50371   1.58639   -2.000
 7202.00    1.53755   1.58642   -2.000
 7203.00    1.54607   1.58522   -2.000
 7204.00    1.54531   1.58490   -2.000
 7205.00    1.46443   1.58467   -2.000
 7206.00    1.35873   1.58542   -2.000
 7207.00    1.36217   1.58745   -2.000
 7208.00    1.39379   1.58887   -2.000
 7209.00    1.38648   1.59144   -2.000
 7210.00    1.37099   1.59344   -2.000
 7211.00    1.39108   1.59634   -2.000
 7212.00    1.41707   1.59916   -2.000
 7213.00    1.41903   1.60253   -2.000
 7214.00    1.41798   1.60642   -2.000
 7215.00    1.43197   1.60978   -2.000
 7216.00    1.44726   1.61386   -2.000
 7217.00    1.41534   1.61695   -2.000
 7218.00    1.38102   1.62038   -2.000
