###################################################################
## OUTPUT of StarlightChains_v04.for    [Cid@UFSC - 01/Apr/2007] ##
###################################################################

## Some input info
KUG0210-078._29_29.txt                   [arq_obs]
Base.CB07.vall.4m                        [arq_base]
Masks.EmLines.NEW.gm                     [arq_masks]
StCv04.C11.config                        [arq_config]
   66                                    [N_base]
    0                                    [N_YAV_components = # of components with extra extinction!]
    0                                    [i_FitPowerLaw (1/0 = Yes/No)]
-9.99                                    [alpha_PowerLaw]
CCM                                      [red_law_option]
 1.458241                                [q_norm = A(l_norm)/A(V)]

## (Re)Sampling Parameters
 3741.00                                 [l_ini (A)]
 7218.00                                 [l_fin (A)]
    1.00                                 [dl    (A)]     (OBS: dl_cushion =    50.00 A)

## Normalization info
 4020.00                                 [l_norm (A) - for base]
 4010.00                                 [llow_norm (A) - window for f_obs]
 4060.00                                 [lupp_norm (A) - window for f_obs]
3.793937E-17                             [fobs_norm (in input units)]

## S/N
 3691.00                                 [llow_SN (A) - window for S/N]
 7268.00                                 [lupp_SN (A) - window for S/N]
   5.504                                 [S/N in S/N window]
   5.893                                 [S/N in norm. window]
   0.050                                 [S/N_err in S/N window]
   0.053                                 [S/N_err in norm. window]
  1.0000                                 [fscale_chi2]

## etc...
    -2007405                             [idum_orig]
  2432                                   [NOl_eff]
  2276                                   [Nl_eff]
   156    NSIGMA                         [Ntot_cliped & clip_method]
 15288210                                [Nglobal_steps]
   7                                     [N_chains]
  26                                     [NEX0s_base = N_base in EX0s-fits]
 0   0   1      156   2.0   2.070E+04    [Clip-Bug, RC-Crash & Burn-In warning-flags, n_censored_weights, wei_nsig_threshold & wei_limit]
    90     89.645     88.853      0.791  [idt_all, wdt_TotTime, wdt_UsrTime & wdt_SysTime (sec)]

## Synthesis Results - Best model ##

 3.34200E-05                             [chi2/Nl_eff]
     7.91336                             [adev (%)]

    97.77632                             [sum-of-x (%)]
 1.86391E-17                             [Flux_tot (units of input spectrum!)]
 1.38237E-12                             [Mini_tot (???)]
 7.01962E-13                             [Mcor_tot (???)]

  25.31                                  [v0_min  (km/s)]
 231.04                                  [vd_min  (km/s)]
-0.5124                                  [AV_min  (mag)]
 0.0000                                  [YAV_min (mag)]

# j     x_j(%)      Mini_j(%)     Mcor_j(%)     age_j(yr)     Z_j      (L/M)_j    YAV?  Mstars   component_j        a/Fe...       SSP_chi2r SSP_adev(%)   SSP_AV   SSP_x(%)
  1      0.0000     0.0000E+00    0.0000E+00    1.000000E+06  0.00400  1.094E-02    0   1.0000   age020_m42            0.0000     1.3172E-04    15.8237   3.4007    77.9119
  2      0.0000     0.0000E+00    0.0000E+00    3.160000E+06  0.00400  4.007E-02    0   0.9999   age045_m42            0.0000     1.0013E-04    13.8329   2.6475    84.0763
  3      0.0000     0.0000E+00    0.0000E+00    5.010000E+06  0.00400  2.539E-02    0   0.9488   age055_m42            0.0000     1.1429E-04    14.7018   2.9800    81.6116
  4      0.0000     0.0000E+00    0.0000E+00    6.610000E+06  0.00400  2.620E-02    0   0.9220   age061_m42            0.0000     9.9482E-05    13.6474   2.5735    84.1961
  5      0.0000     0.0000E+00    0.0000E+00    1.000000E+07  0.00400  1.322E-02    0   0.8862   age070_m42            0.0000     1.0756E-04    13.9788   2.3067    85.0638
  6      0.0000     0.0000E+00    0.0000E+00    1.445000E+07  0.00400  7.883E-03    0   0.8571   age078_m42            0.0000     1.1574E-04    14.4816   2.6379    82.8149
  7      0.0000     0.0000E+00    0.0000E+00    2.512000E+07  0.00400  5.251E-03    0   0.8174   age090_m42            0.0000     1.0737E-04    13.9837   2.1788    85.4224
  8      0.0000     0.0000E+00    0.0000E+00    4.000000E+07  0.00400  3.649E-03    0   0.7851   age104_m42            0.0000     1.0039E-04    13.5496   1.9445    86.4234
  9      0.0000     0.0000E+00    0.0000E+00    5.500000E+07  0.00400  3.098E-03    0   0.7629   age110_m42            0.0000     9.2487E-05    12.9180   2.0828    87.0313
 10      0.0000     0.0000E+00    0.0000E+00    1.015200E+08  0.00400  2.228E-03    0   0.7207   age116_m42            0.0000     8.7012E-05    12.5049   2.0961    87.5594
 11      0.0000     0.0000E+00    0.0000E+00    2.861200E+08  0.00400  1.093E-03    0   0.6648   age125_m42            0.0000     7.9905E-05    11.7109   1.5210    90.1095
 12      0.0000     0.0000E+00    0.0000E+00    5.088000E+08  0.00400  6.597E-04    0   0.6365   age130_m42            0.0000     7.0459E-05    11.0873   1.4996    91.5641
 13      0.0000     0.0000E+00    0.0000E+00    1.434000E+09  0.00400  2.132E-04    0   0.5798   age139_m42            0.0000     5.2810E-05    10.1203   0.5211    94.0294
 14      0.0000     0.0000E+00    0.0000E+00    4.250000E+09  0.00400  5.895E-05    0   0.5377   age158_m42            0.0000     5.3089E-05    10.2895   0.0700    91.0933
 15      0.0000     0.0000E+00    0.0000E+00    7.500000E+09  0.00400  3.510E-05    0   0.5212   age171_m42            0.0000     5.0594E-05     9.9188  -0.1301    90.9365
 16      0.0000     0.0000E+00    0.0000E+00    1.300000E+10  0.00400  2.005E-05    0   0.5034   age193_m42            0.0000     4.8964E-05     9.6453  -0.3054    90.7977
 17      0.0000     0.0000E+00    0.0000E+00    1.800000E+10  0.00400  1.525E-05    0   0.4967   age213_m42            0.0000     5.0345E-05     9.8237  -0.3233    90.2717
 18      0.0000     0.0000E+00    0.0000E+00    1.000000E+06  0.00800  1.238E-02    0   1.0000   age020_m52            0.0000     1.3178E-04    15.8212   3.3961    78.0893
 19      0.0000     0.0000E+00    0.0000E+00    3.160000E+06  0.00800  3.074E-02    0   0.9966   age045_m52            0.0000     1.2936E-04    15.7103   3.3185    78.8420
 20      0.0000     0.0000E+00    0.0000E+00    5.010000E+06  0.00800  2.668E-02    0   0.9443   age055_m52            0.0000     1.1877E-04    14.9697   3.0663    80.7710
 21      0.0000     0.0000E+00    0.0000E+00    6.610000E+06  0.00800  2.136E-02    0   0.9177   age061_m52            0.0000     1.0283E-04    13.9181   1.8070    86.1970
 22      0.0000     0.0000E+00    0.0000E+00    1.000000E+07  0.00800  1.215E-02    0   0.8827   age070_m52            0.0000     1.1508E-04    14.3490   2.4922    84.5260
 23      0.0000     0.0000E+00    0.0000E+00    1.445000E+07  0.00800  8.717E-03    0   0.8552   age078_m52            0.0000     1.1271E-04    14.2824   2.6009    84.0237
 24      0.0000     0.0000E+00    0.0000E+00    2.512000E+07  0.00800  5.592E-03    0   0.8162   age090_m52            0.0000     1.0562E-04    13.8071   2.2409    86.4575
 25      0.0000     0.0000E+00    0.0000E+00    4.000000E+07  0.00800  3.896E-03    0   0.7841   age104_m52            0.0000     9.7444E-05    13.1797   2.1413    87.5416
 26      0.0000     0.0000E+00    0.0000E+00    1.015200E+08  0.00800  2.148E-03    0   0.7226   age116_m52            0.0000     8.7901E-05    12.5329   2.0673    88.0224
 27      0.0000     0.0000E+00    0.0000E+00    2.861200E+08  0.00800  9.925E-04    0   0.6683   age125_m52            0.0000     6.9239E-05    10.9365   1.5625    92.4260
 28      0.0000     0.0000E+00    0.0000E+00    9.047900E+08  0.00800  3.141E-04    0   0.6138   age135_m52            0.0000     4.5087E-05     9.1772   0.7334    97.7513
 29      0.0000     0.0000E+00    0.0000E+00    1.434000E+09  0.00800  1.719E-04    0   0.5853   age139_m52            0.0000     4.6174E-05     9.4230   0.1620    95.6596
 30      0.0000     0.0000E+00    0.0000E+00    2.500000E+09  0.00800  7.872E-05    0   0.5600   age150_m52            0.0000     4.3855E-05     9.1863  -0.1292    94.0884
 31      0.0000     0.0000E+00    0.0000E+00    4.250000E+09  0.00800  4.336E-05    0   0.5426   age158_m52            0.0000     4.5271E-05     9.3215  -0.1428    93.2031
 32      0.0000     0.0000E+00    0.0000E+00    6.250000E+09  0.00800  3.159E-05    0   0.5319   age166_m52            0.0000     4.1379E-05     8.8972  -0.3623    93.9306
 33      5.1384     5.2063E+00    5.2013E+00    1.300000E+10  0.00800  1.361E-05    0   0.5073   age193_m52            0.0000     3.8457E-05     8.4589  -0.8522    94.2567
 34      0.0000     0.0000E+00    0.0000E+00    1.800000E+10  0.00800  9.886E-06    0   0.4990   age213_m52            0.0000     3.7749E-05     8.3342  -0.9806    94.6114
 35      0.0000     0.0000E+00    0.0000E+00    1.000000E+06  0.02000  1.544E-02    0   1.0000   age020_m62            0.0000     1.3265E-04    15.8875   3.3939    78.2351
 36      0.0000     0.0000E+00    0.0000E+00    3.160000E+06  0.02000  3.762E-02    0   0.9858   age045_m62            0.0000     1.3189E-04    15.8048   3.3290    79.0140
 37      0.4327     1.8105E-04    3.3308E-04    5.010000E+06  0.02000  3.296E-02    0   0.9342   age055_m62            0.0000     1.0790E-04    14.2248   2.9298    82.9369
 38      0.0000     0.0000E+00    0.0000E+00    8.710000E+06  0.02000  1.154E-02    0   0.8861   age067_m62            0.0000     1.5057E-04    16.6938   1.9815    84.8780
 39      0.0000     0.0000E+00    0.0000E+00    1.445000E+07  0.02000  7.663E-03    0   0.8472   age078_m62            0.0000     1.1971E-04    14.5427   2.1450    85.9811
 40      0.0000     0.0000E+00    0.0000E+00    2.512000E+07  0.02000  4.532E-03    0   0.8099   age090_m62            0.0000     1.2013E-04    14.4934   2.1382    85.6556
 41      0.0000     0.0000E+00    0.0000E+00    5.500000E+07  0.02000  2.733E-03    0   0.7595   age110_m62            0.0000     9.9773E-05    13.3327   2.1286    86.8110
 42      0.0000     0.0000E+00    0.0000E+00    1.609000E+08  0.02000  1.369E-03    0   0.6985   age120_m62            0.0000     8.1385E-05    11.8528   1.9394    90.3111
 43      3.9847     6.0967E-02    8.0610E-02    2.861200E+08  0.02000  9.013E-04    0   0.6714   age125_m62            0.0000     6.9420E-05    10.8678   1.6718    93.6407
 44     16.5295     4.5335E-01    5.7575E-01    5.088000E+08  0.02000  5.028E-04    0   0.6449   age130_m62            0.0000     5.2450E-05     9.6445   1.2638    97.4849
 45      0.0000     0.0000E+00    0.0000E+00    9.047900E+08  0.02000  2.428E-04    0   0.6179   age135_m62            0.0000     4.3302E-05     9.1349   0.6682    97.5674
 46      0.0000     0.0000E+00    0.0000E+00    1.434000E+09  0.02000  1.263E-04    0   0.5908   age139_m62            0.0000     4.3038E-05     9.0962   0.2214    96.3748
 47      0.0000     0.0000E+00    0.0000E+00    2.500000E+09  0.02000  5.985E-05    0   0.5673   age150_m62            0.0000     4.1199E-05     8.9335  -0.1625    95.9096
 48      0.0000     0.0000E+00    0.0000E+00    4.250000E+09  0.02000  3.271E-05    0   0.5468   age158_m62            0.0000     3.8251E-05     8.5395  -0.4915    96.1853
 49     13.3443     1.3531E+01    1.3768E+01    1.000000E+10  0.02000  1.360E-05    0   0.5167   age181_m62            0.0000     3.7233E-05     8.2647  -0.8761    97.2442
 50     10.8548     2.1012E+01    2.0743E+01    1.800000E+10  0.02000  7.124E-06    0   0.5013   age213_m62            0.0000     4.1667E-05     8.9792  -1.0000    94.5384
 51      0.0000     0.0000E+00    0.0000E+00    1.000000E+06  0.05000  2.592E-02    0   0.9998   age020_m72            0.0000     1.3594E-04    16.0879   3.3888    78.1682
 52      0.0000     0.0000E+00    0.0000E+00    3.160000E+06  0.05000  4.845E-02    0   0.9577   age045_m72            0.0000     1.2276E-04    15.2395   3.2041    80.3283
 53      0.0000     0.0000E+00    0.0000E+00    5.010000E+06  0.05000  3.072E-02    0   0.9147   age055_m72            0.0000     1.2338E-04    14.5628   2.7279    83.0507
 54      0.0000     0.0000E+00    0.0000E+00    6.610000E+06  0.05000  1.455E-02    0   0.8877   age061_m72            0.0000     1.7204E-04    17.8749   2.0303    84.8599
 55      0.0000     0.0000E+00    0.0000E+00    1.000000E+07  0.05000  9.074E-03    0   0.8524   age070_m72            0.0000     1.2456E-04    14.2932   2.9128    82.7304
 56      0.0000     0.0000E+00    0.0000E+00    2.512000E+07  0.05000  4.250E-03    0   0.7902   age090_m72            0.0000     1.1256E-04    13.6433   2.5972    84.6651
 57      0.0000     0.0000E+00    0.0000E+00    4.000000E+07  0.05000  3.087E-03    0   0.7618   age104_m72            0.0000     1.0820E-04    13.3889   2.3688    86.0736
 58      0.0000     0.0000E+00    0.0000E+00    1.015200E+08  0.05000  1.700E-03    0   0.7096   age116_m72            0.0000     8.7510E-05    12.1782   2.0888    89.5200
 59      5.2688     9.8399E-02    1.2853E-01    2.861200E+08  0.05000  7.384E-04    0   0.6633   age125_m72            0.0000     6.0304E-05    10.1154   1.5210    95.7169
 60      0.0000     0.0000E+00    0.0000E+00    5.088000E+08  0.05000  3.819E-04    0   0.6372   age130_m72            0.0000     4.6921E-05     9.4317   1.0112    98.3628
 61     10.2594     8.4414E-01    1.0157E+00    9.047900E+08  0.05000  1.676E-04    0   0.6110   age135_m72            0.0000     4.1743E-05     9.0307   0.2916    97.8771
 62      0.0000     0.0000E+00    0.0000E+00    1.434000E+09  0.05000  8.837E-05    0   0.5874   age139_m72            0.0000     3.9954E-05     8.7561  -0.1710    97.6810
 63      4.9585     1.6154E+00    1.7808E+00    2.500000E+09  0.05000  4.233E-05    0   0.5598   age150_m72            0.0000     3.7540E-05     8.4592  -0.5066    97.5580
 64      0.0000     0.0000E+00    0.0000E+00    6.250000E+09  0.05000  1.435E-05    0   0.5249   age166_m72            0.0000     3.8554E-05     8.3801  -0.9818    97.2533
 65     27.0051     5.7178E+01    5.6706E+01    1.300000E+10  0.05000  6.513E-06    0   0.5036   age193_m72            0.0000     5.5088E-05    10.8000  -1.0000    91.3114
 66      0.0000     0.0000E+00    0.0000E+00    1.800000E+10  0.05000  4.527E-06    0   0.4945   age213_m72            0.0000     7.8418E-05    13.0832  -1.0000    86.6308


## Synthesis Results - Average & Chains ##

# j      x_j: min, <> & last-chain-values for 1 ...  7 chains
  1      0.0000      0.4023      0.0175      0.2132      0.0000      0.0190      0.0052      0.0000      0.0000
  2      0.0000      0.3975      0.0000      0.7089      0.0000      0.1172      0.0815      0.2865      0.1424
  3      0.0000      3.2823      1.8890      3.1072      0.9914      3.7829      4.6401      1.2917      3.0517
  4      0.0000      0.8563      0.8198      0.8561      3.3065      0.6748      0.5395      0.6510      0.8046
  5      0.0000      5.2030      5.1812      5.8879      4.5335      5.7817      6.6682      5.4020      6.0047
  6      0.0000      0.3122      0.0858      0.1041      0.0000      0.0000      0.5384      0.1139      0.0000
  7      0.0000      0.7152      0.7766      0.6140      2.1670      0.6339      0.8810      0.3261      0.8076
  8      0.0000      1.7499      2.0204      1.9570      1.1412      1.9122      1.9306      1.8416      1.9471
  9      0.0000      2.5435      2.8459      2.1217      3.1225      2.5011      2.6209      2.6659      2.6906
 10      0.0000      3.0789      3.5095      2.3696      2.4674      3.4162      3.6460      3.3320      3.8300
 11      0.0000      0.2675      0.0004      0.6650      0.1463      0.0439      0.0000      0.0000      0.0000
 12      0.0000      2.8342      0.0044      3.0262      1.7192      2.7325      3.0124      1.3846      3.3826
 13      0.0000      0.3308      0.0303      0.1642      0.9342      0.3388      0.0000      0.0467      0.1572
 14      0.0000      0.3531      0.0001      0.8337      1.1961      0.0000      0.4092      0.1128      0.1191
 15      0.0000      0.3131      0.0532      0.0000      0.1150      0.1819      0.0271      0.1350      0.0744
 16      0.0000      1.8380      4.6034      1.5878      1.1397      2.1976      0.7856      1.2337      1.1410
 17      0.0000      0.2981      0.0196      0.0194      0.0000      0.2906      0.3641      0.0000      0.0782
 18      0.0000      0.4250      0.0074      0.0000      0.0000      0.0000      0.3858      0.0710      0.0000
 19      0.0000      0.2752      0.1951      0.0000      0.0000      0.0000      0.0580      0.1910      0.0237
 20      0.0000      0.3789      0.0127      0.1584      0.0000      0.1962      0.0000      0.0715      0.0324
 21      0.0000      4.8667      4.2903      6.1931      4.4584      4.9464      5.2875      4.0845      4.9001
 22      0.0000      0.8638      0.8180      0.5548      0.3538      0.8235      0.9642      0.7766      0.5428
 23      0.0000      0.4626      0.3172      0.1131      0.0000      0.4759      0.0000      0.1784      0.2525
 24      0.0000      0.3066      0.0156      0.0000      0.0737      0.2003      0.0803      0.1569      0.1788
 25      0.0000      0.4103      0.0000      1.4243      2.5551      0.0000      0.5137      0.1207      0.0254
 26      0.0000      0.3070      0.0000      0.1146      0.6885      0.0212      0.0156      0.0940      0.2754
 27      0.0000      0.3084      0.0000      0.3234      0.9708      0.6645      0.2851      0.0000      0.0000
 28      0.0000      0.2639      0.0010      0.3256      0.0265      0.0516      0.2349      0.2320      0.0000
 29      0.0000      0.3922      0.0000      0.0000      0.0000      0.0205      0.4486      0.1298      0.1485
 30      0.0000      0.3705      0.0415      0.4421      0.0000      0.0477      0.4976      0.1550      0.0000
 31      0.0000      1.0560      0.0001      1.2290      0.0000      0.8057      0.4676      1.2495      2.5156
 32      0.0000      0.3525      0.1261      0.6795      0.5189      0.6535      0.1060      0.2759      0.2422
 33      5.1384      2.2838      2.6416      2.0575      0.8488      2.7762      2.5941      2.5655      2.7727
 34      0.0000      1.9301      2.1529      1.7542      1.6278      1.9893      2.0851      2.1004      2.3280
 35      0.0000      0.8763      0.8491      0.3838      0.6240      0.3306      1.0169      0.8127      0.5612
 36      0.0000      1.3742      1.6744      1.3134      1.3784      2.1512      1.4952      0.0937      1.1450
 37      0.4327      2.7376      1.9588      2.5847      1.7334      3.5362      2.9743      1.6234      2.4455
 38      0.0000      0.5560      0.0086      0.3610      1.2446      0.3918      0.1602      0.2574      0.7937
 39      0.0000      0.3028      0.0006      0.3210      1.8181      0.0815      0.0000      0.0747      0.2067
 40      0.0000      0.3093      0.0003      0.4195      0.0000      0.0045      0.0247      0.0195      0.0000
 41      0.0000      0.3920      0.0165      0.0000      0.0000      0.0000      0.5688      0.0522      0.2968
 42      0.0000      1.5586      0.7472      1.1360      0.5329      1.7258      1.7439      4.6789      1.4315
 43      3.9847      2.0181      2.6110      1.5393      1.5049      2.1282      2.1406      2.3347      1.9393
 44     16.5295      0.4472      0.6156      0.1981      0.7007      0.0000      0.2418      0.4604      0.5058
 45      0.0000      0.4236      0.0617      0.3608      2.9020      0.4973      0.6834      0.1997      0.0000
 46      0.0000      0.3317      0.0000      0.0013      0.3208      0.1812      0.0000      0.0804      0.2039
 47      0.0000      2.2772      2.7910      3.4434      1.2833      2.3175      2.8524      2.7460      2.5515
 48      0.0000      0.3386      0.0517      0.5471      1.8802      0.4008      0.0580      0.1355      0.0000
 49     13.3443      2.2685      4.6249      2.6726      2.1570      2.6555      1.9876      3.1413      2.7274
 50     10.8548      0.5261      0.5813      0.0877      0.5989      0.1921      0.4101      0.4620      0.4619
 51      0.0000      0.4686      0.3455      0.2398      0.5701      0.3347      0.1046      0.3693      0.1871
 52      0.0000      1.4515      1.7281      1.2228      0.0000      1.3479      1.1739      0.4929      1.3387
 53      0.0000      0.2992      0.0329      0.0000      2.4752      0.0682      0.0726      0.1668      0.1313
 54      0.0000      0.2786      0.0000      0.2419      0.0000      0.1382      0.2186      0.0000      0.3579
 55      0.0000      0.2930      0.0951      0.2773      0.0000      0.0000      0.1881      0.3022      0.0000
 56      0.0000      0.4266      0.0006      0.1584      0.0000      0.0932      0.5154      0.2442      0.0000
 57      0.0000      0.2461      0.0005      0.2978      0.5743      0.0462      0.2785      0.0000      0.1664
 58      0.0000      0.5857      0.0074      0.4989      1.7568      0.4163      0.1000      0.2315      0.4172
 59      5.2688      1.1174      1.2030      0.7444      2.8309      0.6046      1.5072      0.8085      1.6118
 60      0.0000      0.3137      0.0457      0.3091      0.2768      0.4280      0.0833      0.3741      0.4659
 61     10.2594     19.4169     24.1518     21.8749     20.7932     21.6261     20.8056     27.6454     23.4698
 62      0.0000      0.4185      0.0000      0.0000      3.6587      0.3508      0.1772      0.2265      0.2143
 63      4.9585      8.1974      8.2098      8.8710      8.2559      9.8011      9.9843      8.3532      6.1468
 64      0.0000      0.7899      0.0034      1.1291      1.1293      1.2235      0.1999      0.2578      2.7237
 65     27.0051      1.0241      3.7678      0.7179      1.0504      0.9705      1.1055      0.4711      0.1339
 66      0.0000      0.4021      0.0000      0.0955      1.6818      0.0306      0.0305      0.0000      0.0722

# j      m_j: min, <> & last-chain-values for 1 ...  7 chains
  1  0.0000E+00  4.7789E-03  1.4999E-04  2.7473E-03  0.0000E+00  2.2226E-04  6.8258E-05  0.0000E+00  0.0000E+00
  2  0.0000E+00  1.2890E-03  0.0000E+00  2.4932E-03  0.0000E+00  3.7351E-04  2.8974E-04  1.0090E-03  4.7338E-04
  3  0.0000E+00  1.5938E-02  6.6192E-03  1.6365E-02  4.2527E-03  1.8047E-02  2.4712E-02  6.8138E-03  1.5196E-02
  4  0.0000E+00  3.9156E-03  2.7051E-03  4.2461E-03  1.3357E-02  3.0316E-03  2.7060E-03  3.2336E-03  3.7728E-03
  5  0.0000E+00  4.5322E-02  3.2568E-02  5.5630E-02  3.4885E-02  4.9479E-02  6.3706E-02  5.1116E-02  5.3638E-02
  6  0.0000E+00  4.4102E-03  8.7520E-04  1.5947E-03  0.0000E+00  0.0000E+00  8.3421E-03  1.7476E-03  0.0000E+00
  7  0.0000E+00  1.4467E-02  1.1335E-02  1.3472E-02  3.8722E-02  1.2597E-02  1.9546E-02  7.1654E-03  1.6752E-02
  8  0.0000E+00  4.8925E-02  4.0762E-02  5.9345E-02  2.8184E-02  5.2522E-02  5.9198E-02  5.5931E-02  5.5823E-02
  9  0.0000E+00  8.1390E-02  6.5716E-02  7.3641E-02  8.8267E-02  7.8629E-02  9.1984E-02  9.2668E-02  8.8290E-02
 10  0.0000E+00  1.2942E-01  1.0645E-01  1.0803E-01  9.1618E-02  1.4107E-01  1.6808E-01  1.5214E-01  1.6509E-01
 11  0.0000E+00  2.1142E-02  2.5419E-05  5.7009E-02  1.0217E-02  3.4121E-03  0.0000E+00  0.0000E+00  0.0000E+00
 12  0.0000E+00  3.5534E-01  4.0202E-04  4.1152E-01  1.9041E-01  3.3657E-01  4.1421E-01  1.8857E-01  4.3489E-01
 13  0.0000E+00  1.1689E-01  7.7259E-03  6.2924E-02  2.9163E-01  1.1761E-01  0.0000E+00  1.7908E-02  5.6967E-02
 14  0.0000E+00  4.1847E-01  9.7713E-05  1.0717E+00  1.2523E+00  0.0000E+00  5.3195E-01  1.4527E-01  1.4477E-01
 15  0.0000E+00  6.0413E-01  7.4022E-02  0.0000E+00  1.9601E-01  3.4487E-01  5.7309E-02  2.8287E-01  1.4722E-01
 16  0.0000E+00  5.9965E+00  1.0838E+01  5.6188E+00  3.2848E+00  7.0437E+00  2.8112E+00  4.3721E+00  3.8175E+00
 17  0.0000E+00  1.2617E+00  5.9720E-02  8.9084E-02  0.0000E+00  1.2083E+00  1.6900E+00  0.0000E+00  3.3958E-01
 18  0.0000E+00  4.4606E-03  5.5711E-05  0.0000E+00  0.0000E+00  0.0000E+00  4.4412E-03  8.0908E-04  0.0000E+00
 19  0.0000E+00  1.1595E-03  5.9298E-04  0.0000E+00  0.0000E+00  0.0000E+00  2.6782E-04  8.7387E-04  1.0257E-04
 20  0.0000E+00  1.7426E-03  4.1999E-05  7.9013E-04  0.0000E+00  8.8666E-04  0.0000E+00  3.5714E-04  1.5258E-04
 21  0.0000E+00  2.7170E-02  1.7284E-02  3.7501E-02  2.1988E-02  2.7130E-02  3.2376E-02  2.4770E-02  2.8054E-02
 22  0.0000E+00  8.1551E-03  5.5728E-03  5.6804E-03  2.9504E-03  7.6376E-03  9.9837E-03  7.9644E-03  5.2546E-03
 23  0.0000E+00  5.8974E-03  2.9183E-03  1.5643E-03  0.0000E+00  5.9605E-03  0.0000E+00  2.4711E-03  3.3014E-03
 24  0.0000E+00  5.8145E-03  2.1342E-04  0.0000E+00  1.2345E-03  3.7315E-03  1.6712E-03  3.2324E-03  3.4783E-03
 25  0.0000E+00  1.0731E-02  0.0000E+00  4.0401E-02  5.9030E-02  0.0000E+00  1.4734E-02  3.4280E-03  6.8069E-04
 26  0.0000E+00  1.3419E-02  0.0000E+00  5.4340E-03  2.6588E-02  9.1123E-04  7.4627E-04  4.4620E-03  1.2348E-02
 27  0.0000E+00  2.6983E-02  0.0000E+00  3.0694E-02  7.5040E-02  5.7123E-02  2.7360E-02  0.0000E+00  0.0000E+00
 28  0.0000E+00  6.7006E-02  1.8218E-04  8.9682E-02  5.9515E-03  1.2884E-02  6.5430E-02  6.3994E-02  0.0000E+00
 29  0.0000E+00  1.7352E-01  0.0000E+00  0.0000E+00  0.0000E+00  8.8994E-03  2.1770E-01  6.2363E-02  6.7385E-02
 30  0.0000E+00  3.4251E-01  2.7652E-02  4.4324E-01  0.0000E+00  4.3311E-02  5.0450E-01  1.5569E-01  0.0000E+00
 31  0.0000E+00  1.7171E+00  1.3020E-04  2.1676E+00  0.0000E+00  1.2872E+00  8.3399E-01  2.2072E+00  4.1949E+00
 32  0.0000E+00  7.7116E-01  1.9902E-01  1.6127E+00  1.0029E+00  1.4048E+00  2.5433E-01  6.5573E-01  5.4353E-01
 33  5.2013E+00  1.1061E+01  9.2329E+00  1.0809E+01  3.6319E+00  1.3211E+01  1.3780E+01  1.3498E+01  1.3772E+01
 34  0.0000E+00  1.2659E+01  1.0190E+01  1.2480E+01  9.4316E+00  1.2819E+01  1.4999E+01  1.4965E+01  1.5659E+01
 35  0.0000E+00  7.3752E-03  5.1569E-03  3.5037E-03  4.6388E-03  2.7337E-03  9.3862E-03  7.4298E-03  4.8430E-03
 36  0.0000E+00  4.6794E-03  4.1142E-03  4.8509E-03  4.1462E-03  7.1962E-03  5.5837E-03  3.4665E-04  3.9982E-03
 37  3.3308E-04  1.0083E-02  5.2061E-03  1.0325E-02  5.6396E-03  1.2795E-02  1.2015E-02  6.4951E-03  9.2364E-03
 38  0.0000E+00  5.5480E-03  6.1883E-05  3.9063E-03  1.0970E-02  3.8403E-03  1.7528E-03  2.7900E-03  8.1213E-03
 39  0.0000E+00  4.3506E-03  5.7828E-06  5.0019E-03  2.3073E-02  1.1504E-03  0.0000E+00  1.1656E-03  3.0446E-03
 40  0.0000E+00  7.1818E-03  4.6633E-06  1.0566E-02  0.0000E+00  1.0273E-04  6.2884E-04  4.9068E-04  0.0000E+00
 41  0.0000E+00  1.4154E-02  4.2962E-04  0.0000E+00  0.0000E+00  0.0000E+00  2.2529E-02  2.0461E-03  1.0992E-02
 42  0.0000E+00  1.0334E-01  3.5747E-02  8.1693E-02  3.1212E-02  1.1241E-01  1.2681E-01  3.3698E-01  9.7330E-02
 43  8.0610E-02  1.9535E-01  1.8238E-01  1.6161E-01  1.2869E-01  2.0239E-01  2.2725E-01  2.4550E-01  1.9250E-01
 44  5.7575E-01  7.4542E-02  7.4042E-02  3.5819E-02  1.0317E-01  0.0000E+00  4.4207E-02  8.3350E-02  8.6457E-02
 45  0.0000E+00  1.4010E-01  1.4722E-02  1.2942E-01  8.4777E-01  1.6155E-01  2.4788E-01  7.1733E-02  0.0000E+00
 46  0.0000E+00  2.0160E-01  0.0000E+00  8.6309E-04  1.7228E-01  1.0823E-01  0.0000E+00  5.3085E-02  1.2709E-01
 47  0.0000E+00  2.8049E+00  2.4807E+00  4.6003E+00  1.3963E+00  2.8043E+00  3.8533E+00  3.6741E+00  3.2227E+00
 48  0.0000E+00  7.3551E-01  8.1106E-02  1.2891E+00  3.6079E+00  8.5537E-01  1.3824E-01  3.1973E-01  0.0000E+00
 49  1.3768E+01  1.1199E+01  1.6476E+01  1.4311E+01  9.4069E+00  1.2880E+01  1.0762E+01  1.6846E+01  1.3808E+01
 50  2.0743E+01  4.8107E+00  3.8358E+00  8.6950E-01  4.8378E+00  1.7260E+00  4.1124E+00  4.5888E+00  4.3314E+00
 51  0.0000E+00  2.3486E-03  1.2498E-03  1.3039E-03  2.5240E-03  1.6479E-03  5.7528E-04  2.0109E-03  9.6183E-04
 52  0.0000E+00  3.7282E-03  3.2031E-03  3.4066E-03  0.0000E+00  3.4014E-03  3.3069E-03  1.3752E-03  3.5262E-03
 53  0.0000E+00  1.1576E-03  9.1924E-05  0.0000E+00  8.4600E-03  2.5942E-04  3.0817E-04  7.0086E-04  5.2098E-04
 54  0.0000E+00  2.2089E-03  0.0000E+00  2.0802E-03  0.0000E+00  1.0767E-03  1.9009E-03  0.0000E+00  2.9096E-03
 55  0.0000E+00  3.5763E-03  8.3804E-04  3.6719E-03  0.0000E+00  0.0000E+00  2.5188E-03  4.0070E-03  0.0000E+00
 56  0.0000E+00  1.0308E-02  1.0394E-05  4.1519E-03  0.0000E+00  2.2112E-03  1.3658E-02  6.4081E-03  0.0000E+00
 57  0.0000E+00  7.8906E-03  1.0429E-05  1.0357E-02  1.6269E-02  1.4558E-03  9.7936E-03  0.0000E+00  5.4726E-03
 58  0.0000E+00  3.1766E-02  2.9047E-04  2.9350E-02  8.4176E-02  2.2182E-02  5.9516E-03  1.3642E-02  2.3204E-02
 59  1.2853E-01  1.3043E-01  1.0133E-01  9.4252E-02  2.9191E-01  6.9340E-02  1.9296E-01  1.0251E-01  1.9293E-01
 60  0.0000E+00  6.8016E-02  7.1504E-03  7.2679E-02  5.3006E-02  9.1176E-02  1.9797E-02  8.8112E-02  1.0359E-01
 61  1.0157E+00  9.1982E+00  8.2562E+00  1.1240E+01  8.7015E+00  1.0065E+01  1.0810E+01  1.4226E+01  1.1401E+01
 62  0.0000E+00  3.6150E-01  0.0000E+00  0.0000E+00  2.7916E+00  2.9765E-01  1.6783E-01  2.1251E-01  1.8983E-01
 63  1.7808E+00  1.4087E+01  1.0181E+01  1.6535E+01  1.2533E+01  1.6547E+01  1.8818E+01  1.5593E+01  1.0832E+01
 64  0.0000E+00  3.7547E+00  1.1662E-02  5.8209E+00  4.7416E+00  5.7131E+00  1.0422E+00  1.3312E+00  1.3276E+01
 65  5.6706E+01  1.0289E+01  2.7318E+01  7.8234E+00  9.3231E+00  9.5800E+00  1.2182E+01  5.1423E+00  1.3801E+00
 66  0.0000E+00  5.7075E+00  0.0000E+00  1.4701E+00  2.1088E+01  4.2605E-01  4.7548E-01  0.0000E+00  1.0515E+00

# AV, chi2 & Mass for <> & i_chain = 1 ...  7 solutions
AV      -0.5124      0.6161      0.4978      0.6379      0.4652      0.5955      0.6770      0.6446      0.6362
chi2 3.3420E-05  6.8783E-05  6.2974E-05  6.4744E-05  6.7416E-05  6.4278E-05  6.7159E-05  6.3349E-05  6.4016E-05
Mass 7.0196E-13  6.6785E-13  7.8957E-13  6.3407E-13  6.1737E-13  6.6129E-13  6.6086E-13  6.3884E-13  6.6907E-13
  25.31                                  [v0_min (km/s) before EX0s...]
 231.04                                  [vd_min (km/s) before EX0s...]


## Synthetic spectrum (Best Model) ##l_obs f_obs f_syn wei
 3478    [Nl_obs]
 3741.00    0.25564   0.43482    0.000
 3742.00    0.26489   0.43629    0.000
 3743.00    0.22853   0.42774    0.000
 3744.00    0.18707   0.41143    0.000
 3745.00    0.14264   0.39105    0.103
 3746.00    0.14589   0.36993    0.102
 3747.00    0.17336   0.35257    0.102
 3748.00    0.20813   0.34436    0.102
 3749.00    0.24612   0.34817    0.103
 3750.00    0.33223   0.36320    0.103
 3751.00    0.43653   0.38711    0.103
 3752.00    0.40299   0.41691    0.101
 3753.00    0.32527   0.44747    0.099
 3754.00    0.39631   0.47241    0.099
 3755.00    0.50721   0.48702    0.099
 3756.00    0.49126   0.49101    0.097
 3757.00    0.44747   0.48808    0.096
 3758.00    0.40608   0.48201    0.094
 3759.00    0.36510   0.47529    0.092
 3760.00    0.33033   0.46946    0.091
 3761.00    0.29639   0.46504    0.090
 3762.00    0.31205   0.46272    0.089
 3763.00    0.33237   0.46247    0.089
 3764.00    0.36337   0.46189    0.088
 3765.00    0.39497   0.46006    0.088
 3766.00    0.35617   0.45906    0.089
 3767.00    0.31658   0.46013    0.089
 3768.00    0.38402   0.46331    0.090
 3769.00    0.44940   0.47001    0.092
 3770.00    0.46474   0.48114    0.093
 3771.00    0.47276   0.49522    0.094
 3772.00    0.38488   0.51050    0.091
 3773.00    0.31321   0.52630    0.089
 3774.00    0.38380   0.54228    0.090
 3775.00    0.43873   0.55809    0.091
 3776.00    0.39212   0.57374    0.091
 3777.00    0.35012   0.58982    0.090
 3778.00    0.33142   0.60598    0.092
 3779.00    0.33063   0.62076    0.093
 3780.00    0.40314   0.63302    0.097
 3781.00    0.47967   0.64200    0.099
 3782.00    0.56985   0.64607    0.099
 3783.00    0.63698   0.64251    0.098
 3784.00    0.63816   0.63013    0.101
 3785.00    0.63416   0.61112    0.102
 3786.00    0.61753   0.58829    0.100
 3787.00    0.58398   0.56423    0.099
 3788.00    0.51478   0.54184    0.097
 3789.00    0.45917   0.52300    0.095
 3790.00    0.42846   0.50686    0.094
 3791.00    0.38578   0.49176    0.092
 3792.00    0.32391   0.47696    0.092
 3793.00    0.34277   0.46194    0.092
 3794.00    0.47504   0.44672    0.092
 3795.00    0.50503   0.43165    0.091
 3796.00    0.40859   0.41831    0.088
 3797.00    0.32244   0.41030    0.086
 3798.00    0.24750   0.41106    0.085
 3799.00    0.26166   0.42134    0.086
 3800.00    0.36144   0.43971    0.089
 3801.00    0.39012   0.46377    0.090
 3802.00    0.35856   0.48998    0.091
 3803.00    0.37575   0.51482    0.090
 3804.00    0.42931   0.53558    0.090
 3805.00    0.55920   0.55135    0.091
 3806.00    0.73913   0.56352    0.092
 3807.00    0.77081   0.57349    0.092
 3808.00    0.71741   0.58126    0.091
 3809.00    0.61382   0.58589    0.090
 3810.00    0.48515   0.58600    0.090
 3811.00    0.36883   0.58065    0.090
 3812.00    0.25786   0.57050    0.089
 3813.00    0.32702   0.55678    0.090
 3814.00    0.46299   0.54125    0.092
 3815.00    0.49623   0.52648    0.094
 3816.00    0.49719   0.51336    0.095
 3817.00    0.47655   0.50091    0.095
 3818.00    0.45025   0.48902    0.094
 3819.00    0.40340   0.47910    0.094
 3820.00    0.35214   0.47145    0.093
 3821.00    0.28877   0.46379    0.091
 3822.00    0.22335   0.45365    0.090
 3823.00    0.21191   0.44112    0.089
 3824.00    0.20740   0.42817    0.089
 3825.00    0.25764   0.41625    0.090
 3826.00    0.31280   0.40543    0.092
 3827.00    0.33839   0.39509    0.091
 3828.00    0.36239   0.38496    0.091
 3829.00    0.34381   0.37474    0.090
 3830.00    0.32407   0.36379    0.090
 3831.00    0.27902   0.35214    0.090
 3832.00    0.23633   0.34071    0.090
 3833.00    0.24638   0.33098    0.090
 3834.00    0.25956   0.32423    0.090
 3835.00    0.31159   0.32065    0.089
 3836.00    0.35461   0.32045    0.089
 3837.00    0.32157   0.32474    0.089
 3838.00    0.28766   0.33432    0.089
 3839.00    0.24831   0.34950    0.087
 3840.00    0.21271   0.37027    0.085
 3841.00    0.19562   0.39481    0.086
 3842.00    0.17512   0.42071    0.087
 3843.00    0.14100   0.44613    0.086
 3844.00    0.13607   0.46955    0.086
 3845.00    0.22822   0.48994    0.088
 3846.00    0.31543   0.50617    0.091
 3847.00    0.38879   0.51678    0.000
 3848.00    0.43759   0.52256    0.000
 3849.00    0.42741   0.52662    0.000
 3850.00    0.40942   0.53035    0.000
 3851.00    0.37525   0.53270    0.000
 3852.00    0.31837   0.53286    0.000
 3853.00    0.22053   0.53078    0.000
 3854.00    0.18246   0.52693    0.000
 3855.00    0.23869   0.52232    0.000
 3856.00    0.34065   0.51680    0.000
 3857.00    0.50595   0.51023    0.000
 3858.00    0.53897   0.50519    0.000
 3859.00    0.41080   0.50496    0.000
 3860.00    0.34322   0.51031    0.000
 3861.00    0.34072   0.51955    0.000
 3862.00    0.37468   0.52999    0.000
 3863.00    0.44321   0.53957    0.000
 3864.00    0.43659   0.54754    0.000
 3865.00    0.36721   0.55315    0.000
 3866.00    0.34268   0.55509    0.000
 3867.00    0.35113   0.55270    0.000
 3868.00    0.37184   0.54661    0.000
 3869.00    0.40046   0.53851    0.000
 3870.00    0.43646   0.53046    0.000
 3871.00    0.47662   0.52465    0.000
 3872.00    0.52119   0.52250    0.000
 3873.00    0.56794   0.52319    0.000
 3874.00    0.57716   0.52408    0.000
 3875.00    0.57042   0.52275    0.000
 3876.00    0.53613   0.51848    0.000
 3877.00    0.49181   0.51284    0.000
 3878.00    0.50887   0.50677    0.000
 3879.00    0.54484   0.49872    0.000
 3880.00    0.54277   0.48836    0.000
 3881.00    0.53093   0.47853    0.088
 3882.00    0.42362   0.47085    0.086
 3883.00    0.29635   0.46312    0.084
 3884.00    0.37236   0.45310    0.086
 3885.00    0.48189   0.44243    0.088
 3886.00    0.54135   0.43449    0.089
 3887.00    0.59461   0.43152    0.089
 3888.00    0.53556   0.43480    0.088
 3889.00    0.46690   0.44483    0.086
 3890.00    0.56648   0.46135    0.087
 3891.00    0.67444   0.48244    0.088
 3892.00    0.64079   0.50447    0.089
 3893.00    0.60448   0.52457    0.090
 3894.00    0.54596   0.54244    0.089
 3895.00    0.48898   0.55810    0.088
 3896.00    0.46343   0.57007    0.087
 3897.00    0.44011   0.57795    0.087
 3898.00    0.44313   0.58395    0.085
 3899.00    0.44759   0.59052    0.084
 3900.00    0.46377   0.59722    0.084
 3901.00    0.48163   0.60212    0.084
 3902.00    0.50981   0.60540    0.083
 3903.00    0.54061   0.60836    0.083
 3904.00    0.58398   0.61237    0.082
 3905.00    0.61855   0.61974    0.082
 3906.00    0.61869   0.63120    0.080
 3907.00    0.60718   0.64587    0.079
 3908.00    0.55772   0.66264    0.081
 3909.00    0.51179   0.67978    0.083
 3910.00    0.47559   0.69609    0.085
 3911.00    0.47846   0.70975    0.087
 3912.00    0.57360   0.71826    0.088
 3913.00    0.68161   0.72087    0.089
 3914.00    0.81588   0.71784    0.093
 3915.00    0.84020   0.71008    0.095
 3916.00    0.66920   0.69876    0.093
 3917.00    0.58283   0.68426    0.091
 3918.00    0.62794   0.66749    0.091
 3919.00    0.63402   0.65041    0.091
 3920.00    0.58684   0.63469    0.091
 3921.00    0.50786   0.62129    0.090
 3922.00    0.39068   0.60978    0.090
 3923.00    0.35157   0.59813    0.090
 3924.00    0.39514   0.58425    0.093
 3925.00    0.41900   0.56690    0.094
 3926.00    0.42444   0.54490    0.092
 3927.00    0.39188   0.51762    0.092
 3928.00    0.32803   0.48594    0.093
 3929.00    0.29443   0.45134    0.092
 3930.00    0.28277   0.41644    0.089
 3931.00    0.27651   0.38458    0.087
 3932.00    0.27370   0.35940    0.087
 3933.00    0.27210   0.34453    0.087
 3934.00    0.27119   0.34183    0.089
 3935.00    0.29639   0.35097    0.089
 3936.00    0.33423   0.37020    0.089
 3937.00    0.39842   0.39721    0.090
 3938.00    0.47363   0.42902    0.090
 3939.00    0.50871   0.46165    0.091
 3940.00    0.52943   0.49164    0.092
 3941.00    0.50773   0.51710    0.092
 3942.00    0.47322   0.53816    0.091
 3943.00    0.44002   0.55738    0.091
 3944.00    0.40716   0.57688    0.091
 3945.00    0.48305   0.59558    0.092
 3946.00    0.58111   0.61231    0.092
 3947.00    0.57608   0.62831    0.093
 3948.00    0.55455   0.64516    0.094
 3949.00    0.53262   0.66165    0.095
 3950.00    0.51064   0.67398    0.096
 3951.00    0.55744   0.68108    0.094
 3952.00    0.60984   0.68624    0.093
 3953.00    0.64378   0.68989    0.095
 3954.00    0.67688   0.68820    0.097
 3955.00    0.66034   0.68017    0.097
 3956.00    0.64367   0.66840    0.097
 3957.00    0.65296   0.65436    0.097
 3958.00    0.65585   0.63535    0.098
 3959.00    0.53752   0.60762    0.098
 3960.00    0.43562   0.57299    0.000
 3961.00    0.51875   0.53650    0.000
 3962.00    0.58659   0.49927    0.000
 3963.00    0.53412   0.45972    0.000
 3964.00    0.47755   0.41813    0.000
 3965.00    0.39657   0.37769    0.000
 3966.00    0.33269   0.34262    0.000
 3967.00    0.34907   0.31531    0.000
 3968.00    0.35148   0.29713    0.000
 3969.00    0.30036   0.29005    0.000
 3970.00    0.26615   0.29552    0.000
 3971.00    0.28598   0.31348    0.000
 3972.00    0.31281   0.34266    0.000
 3973.00    0.35861   0.38113    0.000
 3974.00    0.42919   0.42575    0.000
 3975.00    0.55731   0.47277    0.000
 3976.00    0.66370   0.51975    0.000
 3977.00    0.72645   0.56501    0.000
 3978.00    0.78450   0.60688    0.000
 3979.00    0.83433   0.64314    0.000
 3980.00    0.82886   0.67225    0.000
 3981.00    0.73871   0.69563    0.097
 3982.00    0.66217   0.71542    0.096
 3983.00    0.60392   0.73259    0.095
 3984.00    0.63261   0.74751    0.094
 3985.00    0.76427   0.76073    0.094
 3986.00    0.83820   0.77414    0.094
 3987.00    0.85184   0.78788    0.095
 3988.00    0.85547   0.79973    0.095
 3989.00    0.84988   0.80982    0.095
 3990.00    0.87522   0.81895    0.094
 3991.00    0.92568   0.82674    0.092
 3992.00    0.96465   0.83207    0.092
 3993.00    0.99542   0.83409    0.093
 3994.00    1.00618   0.83443    0.093
 3995.00    1.00441   0.83467    0.095
 3996.00    0.96621   0.83557    0.095
 3997.00    0.90803   0.83916    0.094
 3998.00    0.89102   0.84593    0.093
 3999.00    0.89362   0.85349    0.093
 4000.00    0.89535   0.86025    0.094
 4001.00    0.89674   0.86634    0.095
 4002.00    0.91681   0.86997    0.097
 4003.00    0.94344   0.86780    0.099
 4004.00    0.96041   0.86097    0.098
 4005.00    0.97452   0.85590    0.097
 4006.00    1.05080   0.85610    0.098
 4007.00    1.14235   0.85949    0.100
 4008.00    1.02304   0.86451    0.099
 4009.00    0.86180   0.87280    0.097
 4010.00    0.93150   0.88499    0.098
 4011.00    1.03707   0.89799    0.098
 4012.00    1.02330   0.90885    0.098
 4013.00    0.99581   0.91750    0.098
 4014.00    0.98527   0.92484    0.098
 4015.00    0.97604   0.93009    0.099
 4016.00    0.98320   0.93339    0.100
 4017.00    0.99104   0.93701    0.100
 4018.00    1.00918   0.94067    0.099
 4019.00    1.02708   0.94199    0.098
 4020.00    1.03015   0.94076    0.097
 4021.00    1.03480   0.93893    0.097
 4022.00    1.06711   0.93740    0.097
 4023.00    1.09675   0.93495    0.098
 4024.00    1.09770   0.93189    0.098
 4025.00    1.10047   0.92952    0.099
 4026.00    1.11709   0.92665    0.099
 4027.00    1.13118   0.92015    0.100
 4028.00    1.13064   0.90731    0.102
 4029.00    1.11036   0.88919    0.103
 4030.00    0.99961   0.87030    0.101
 4031.00    0.94425   0.85354    0.100
 4032.00    1.09670   0.84054    0.099
 4033.00    1.18653   0.83439    0.098
 4034.00    1.08003   0.83847    0.098
 4035.00    1.00000   0.85352    0.098
 4036.00    0.99040   0.87491    0.098
 4037.00    0.98708   0.89584    0.098
 4038.00    0.99811   0.91179    0.096
 4039.00    1.01120   0.92042    0.094
 4040.00    1.02838   0.92160    0.094
 4041.00    1.06533   0.91496    0.094
 4042.00    1.13632   0.89855    0.094
 4043.00    1.13053   0.87408    0.093
 4044.00    1.00888   0.84987    0.092
 4045.00    0.92250   0.83560    0.091
 4046.00    0.88287   0.83338    0.090
 4047.00    0.89222   0.83802    0.091
 4048.00    0.95873   0.84731    0.093
 4049.00    0.98361   0.86243    0.094
 4050.00    0.96560   0.88037    0.094
 4051.00    0.90608   0.89406    0.093
 4052.00    0.80885   0.89919    0.093
 4053.00    0.75924   0.89694    0.093
 4054.00    0.74776   0.89068    0.093
 4055.00    0.83810   0.88179    0.093
 4056.00    1.00015   0.87036    0.094
 4057.00    1.03169   0.85920    0.094
 4058.00    0.98262   0.85168    0.095
 4059.00    0.92108   0.84690    0.094
 4060.00    0.85281   0.83998    0.091
 4061.00    0.81787   0.82844    0.092
 4062.00    0.79855   0.81715    0.094
 4063.00    0.78057   0.81257    0.094
 4064.00    0.76312   0.81328    0.092
 4065.00    0.82940   0.81345    0.093
 4066.00    0.92455   0.81471    0.094
 4067.00    0.86124   0.82309    0.093
 4068.00    0.75191   0.83594    0.092
 4069.00    0.75749   0.84311    0.093
 4070.00    0.79067   0.84205    0.094
 4071.00    0.83148   0.84081    0.094
 4072.00    0.87378   0.84253    0.095
 4073.00    0.97506   0.84066    0.096
 4074.00    1.08523   0.83244    0.097
 4075.00    1.00590   0.82363    0.096
 4076.00    0.90561   0.82046    0.096
 4077.00    0.90311   0.82365    0.095
 4078.00    0.90777   0.83079    0.093
 4079.00    0.84537   0.84104    0.093
 4080.00    0.78041   0.85401    0.093
 4081.00    0.82079   0.86798    0.093
 4082.00    0.86327   0.88140    0.092
 4083.00    0.96315   0.89336    0.094
 4084.00    1.05414   0.90317    0.096
 4085.00    0.99868   0.91129    0.094
 4086.00    0.94977   0.91893    0.093
 4087.00    0.96816   0.92624    0.093
 4088.00    0.95574   0.93152    0.093
 4089.00    0.71721   0.93305    0.092
 4090.00    0.54443   0.93023    0.091
 4091.00    0.74049   0.92247    0.091
 4092.00    0.91891   0.90973    0.000
 4093.00    1.01843   0.89102    0.000
 4094.00    1.08205   0.86565    0.000
 4095.00    1.01389   0.83690    0.000
 4096.00    0.95662   0.80880    0.000
 4097.00    0.93287   0.78184    0.000
 4098.00    0.88478   0.75445    0.000
 4099.00    0.77310   0.72790    0.000
 4100.00    0.71049   0.70744    0.000
 4101.00    0.75808   0.69762    0.000
 4102.00    0.81617   0.69784    0.000
 4103.00    0.89467   0.70495    0.000
 4104.00    0.91853   0.71853    0.000
 4105.00    0.84966   0.73846    0.000
 4106.00    0.83292   0.76084    0.000
 4107.00    0.89367   0.78128    0.000
 4108.00    0.91713   0.79815    0.000
 4109.00    0.89186   0.81190    0.000
 4110.00    0.84508   0.82345    0.000
 4111.00    0.77355   0.83404    0.000
 4112.00    0.72818   0.84454    0.000
 4113.00    0.70935   0.85457    0.086
 4114.00    0.72571   0.86414    0.086
 4115.00    0.77359   0.87290    0.085
 4116.00    0.85295   0.87860    0.086
 4117.00    0.95714   0.87950    0.087
 4118.00    0.99052   0.87847    0.088
 4119.00    0.97475   0.87870    0.088
 4120.00    0.91923   0.87826    0.088
 4121.00    0.83951   0.87591    0.087
 4122.00    0.79877   0.87504    0.087
 4123.00    0.77875   0.87803    0.088
 4124.00    0.78657   0.88105    0.088
 4125.00    0.80721   0.87969    0.088
 4126.00    0.90878   0.87473    0.088
 4127.00    1.04249   0.86858    0.089
 4128.00    1.03879   0.86133    0.090
 4129.00    0.98858   0.85167    0.091
 4130.00    0.89763   0.84044    0.091
 4131.00    0.79509   0.83095    0.090
 4132.00    0.81590   0.82722    0.089
 4133.00    0.86567   0.82991    0.090
 4134.00    0.86806   0.83811    0.089
 4135.00    0.86150   0.84967    0.089
 4136.00    0.90963   0.86183    0.090
 4137.00    0.96575   0.87326    0.091
 4138.00    0.86127   0.88209    0.091
 4139.00    0.73972   0.88543    0.091
 4140.00    0.75086   0.88058    0.091
 4141.00    0.77118   0.86798    0.091
 4142.00    0.82400   0.85255    0.092
 4143.00    0.87794   0.84098    0.092
 4144.00    0.84955   0.83505    0.091
 4145.00    0.82054   0.83144    0.091
 4146.00    0.77621   0.82992    0.091
 4147.00    0.73683   0.83266    0.092
 4148.00    0.77388   0.83760    0.092
 4149.00    0.81726   0.84096    0.093
 4150.00    0.92313   0.84172    0.093
 4151.00    0.99455   0.84016    0.093
 4152.00    0.82144   0.83717    0.093
 4153.00    0.68973   0.83448    0.093
 4154.00    0.78407   0.83423    0.092
 4155.00    0.86990   0.83623    0.092
 4156.00    0.91855   0.84105    0.092
 4157.00    0.94461   0.85004    0.091
 4158.00    0.88943   0.86186    0.091
 4159.00    0.85745   0.87368    0.090
 4160.00    0.89548   0.88501    0.089
 4161.00    0.93678   0.89663    0.089
 4162.00    0.98646   0.90515    0.090
 4163.00    1.01668   0.90788    0.090
 4164.00    1.00387   0.90694    0.091
 4165.00    0.98843   0.90353    0.092
 4166.00    0.96793   0.89623    0.092
 4167.00    0.93877   0.88677    0.092
 4168.00    0.89515   0.87782    0.090
 4169.00    0.84695   0.86748    0.089
 4170.00    0.79205   0.85352    0.089
 4171.00    0.78428   0.83828    0.089
 4172.00    0.83723   0.82621    0.089
 4173.00    0.84229   0.81790    0.088
 4174.00    0.79300   0.81132    0.087
 4175.00    0.78620   0.80614    0.087
 4176.00    0.82191   0.80441    0.090
 4177.00    0.87180   0.80781    0.090
 4178.00    0.93419   0.81509    0.089
 4179.00    0.92512   0.82290    0.088
 4180.00    0.86049   0.82895    0.086
 4181.00    0.86006   0.83461    0.085
 4182.00    0.90354   0.84209    0.085
 4183.00    0.85576   0.85045    0.085
 4184.00    0.75328   0.85693    0.085
 4185.00    0.81326   0.85893    0.085
 4186.00    0.95820   0.85867    0.085
 4187.00    1.05450   0.86214    0.086
 4188.00    1.12875   0.86873    0.086
 4189.00    1.06801   0.87177    0.086
 4190.00    0.95459   0.87119    0.085
 4191.00    0.84862   0.87423    0.083
 4192.00    0.74513   0.87950    0.082
 4193.00    0.77150   0.87772    0.083
 4194.00    0.83407   0.86796    0.085
 4195.00    0.95639   0.85687    0.086
 4196.00    1.09242   0.84593    0.087
 4197.00    1.01503   0.83235    0.087
 4198.00    0.89842   0.81970    0.087
 4199.00    0.86973   0.81257    0.086
 4200.00    0.85348   0.80941    0.086
 4201.00    0.95726   0.81040    0.085
 4202.00    1.07328   0.81897    0.085
 4203.00    1.03326   0.83271    0.084
 4204.00    0.98308   0.84671    0.083
 4205.00    0.92560   0.86171    0.084
 4206.00    0.86811   0.87878    0.085
 4207.00    0.94688   0.89404    0.084
 4208.00    1.02243   0.90363    0.083
 4209.00    1.00318   0.90860    0.083
 4210.00    0.98318   0.91149    0.083
 4211.00    0.95207   0.91232    0.083
 4212.00    0.92750   0.90943    0.083
 4213.00    0.96482   0.90359    0.083
 4214.00    0.99261   0.89880    0.083
 4215.00    0.95487   0.90011    0.082
 4216.00    0.93207   0.90749    0.082
 4217.00    0.98858   0.91479    0.083
 4218.00    1.02508   0.91938    0.083
 4219.00    0.97614   0.92369    0.084
 4220.00    0.93718   0.92459    0.084
 4221.00    0.93343   0.91351    0.083
 4222.00    0.92142   0.89091    0.082
 4223.00    0.88493   0.86332    0.083
 4224.00    0.85573   0.83305    0.083
 4225.00    0.84496   0.80258    0.083
 4226.00    0.85303   0.78199    0.083
 4227.00    0.90206   0.77826    0.083
 4228.00    0.92705   0.78602    0.082
 4229.00    0.90672   0.80028    0.080
 4230.00    0.89597   0.82121    0.080
 4231.00    0.90097   0.84386    0.080
 4232.00    0.89495   0.86130    0.080
 4233.00    0.87305   0.87325    0.079
 4234.00    0.86409   0.87968    0.079
 4235.00    0.87157   0.88037    0.080
 4236.00    0.86156   0.88152    0.080
 4237.00    0.83199   0.88664    0.079
 4238.00    0.84008   0.89332    0.078
 4239.00    0.88536   0.90307    0.078
 4240.00    0.92927   0.91820    0.079
 4241.00    0.97200   0.93307    0.082
 4242.00    0.99946   0.94499    0.083
 4243.00    1.01520   0.95692    0.082
 4244.00    1.01153   0.96453    0.083
 4245.00    0.99480   0.96124    0.083
 4246.00    0.98511   0.95087    0.084
 4247.00    0.97960   0.93981    0.086
 4248.00    0.98447   0.92485    0.086
 4249.00    0.99468   0.90416    0.086
 4250.00    1.04216   0.88749    0.086
 4251.00    1.10627   0.88027    0.087
 4252.00    1.06706   0.87495    0.087
 4253.00    0.98825   0.86786    0.086
 4254.00    0.95751   0.86717    0.085
 4255.00    0.94244   0.87478    0.083
 4256.00    0.92843   0.88077    0.083
 4257.00    0.91470   0.88098    0.083
 4258.00    0.93600   0.88189    0.083
 4259.00    0.96515   0.88718    0.084
 4260.00    0.93840   0.89578    0.084
 4261.00    0.90166   0.90735    0.085
 4262.00    0.94348   0.92063    0.085
 4263.00    0.99605   0.93371    0.086
 4264.00    1.03538   0.94685    0.085
 4265.00    1.07342   0.95695    0.085
 4266.00    1.10581   0.95562    0.084
 4267.00    1.13785   0.94257    0.084
 4268.00    1.05980   0.92335    0.083
 4269.00    0.97849   0.89721    0.082
 4270.00    0.84087   0.86485    0.081
 4271.00    0.71129   0.83817    0.080
 4272.00    0.79431   0.82384    0.081
 4273.00    0.87009   0.81563    0.081
 4274.00    0.84620   0.81420    0.081
 4275.00    0.83341   0.82713    0.081
 4276.00    0.92143   0.85022    0.083
 4277.00    0.99255   0.87166    0.084
 4278.00    0.95115   0.88834    0.083
 4279.00    0.91365   0.90240    0.082
 4280.00    0.89637   0.91296    0.079
 4281.00    0.88377   0.91730    0.078
 4282.00    0.89070   0.91530   -2.000
 4283.00    0.88805   0.90874   -2.000
 4284.00    0.85232   0.89874   -2.000
 4285.00    0.81721   0.88733   -2.000
 4286.00    0.78392   0.87674   -2.000
 4287.00    0.79075   0.86489   -2.000
 4288.00    0.89710   0.84910   -2.000
 4289.00    0.96548   0.83594   -2.000
 4290.00    0.95268   0.83164   -2.000
 4291.00    0.92554   0.83178   -2.000
 4292.00    0.87176   0.82969   -2.000
 4293.00    0.83205   0.82598   -2.000
 4294.00    0.81516   0.82453   -2.000
 4295.00    0.80930   0.82159   -2.000
 4296.00    0.81910   0.81071   -2.000
 4297.00    0.80957   0.79135   -2.000
 4298.00    0.77583   0.76873    0.077
 4299.00    0.77085   0.74825    0.076
 4300.00    0.79759   0.73060    0.076
 4301.00    0.81005   0.71324    0.075
 4302.00    0.80862   0.69762    0.076
 4303.00    0.75527   0.68859    0.075
 4304.00    0.65737   0.68400    0.073
 4305.00    0.62896   0.67924    0.072
 4306.00    0.65306   0.67517    0.074
 4307.00    0.69007   0.67517    0.075
 4308.00    0.73566   0.68123    0.074
 4309.00    0.75246   0.69393    0.075
 4310.00    0.75252   0.71388    0.076
 4311.00    0.77463   0.74254    0.076
 4312.00    0.80792   0.77950    0.075
 4313.00    0.85669   0.82075    0.075
 4314.00    0.91225   0.86543    0.075
 4315.00    0.92105   0.91223    0.075
 4316.00    0.91223   0.95233    0.075
 4317.00    0.93710   0.98077    0.075
 4318.00    0.97273   0.99952    0.076
 4319.00    1.03959   1.00690    0.076
 4320.00    1.11479   0.99846    0.077
 4321.00    1.11813   0.97850    0.076
 4322.00    1.10576   0.95240    0.076
 4323.00    0.99940   0.92310    0.076
 4324.00    0.87670   0.89570    0.077
 4325.00    0.85917   0.87841    0.076
 4326.00    0.85556   0.87575    0.076
 4327.00    0.91744   0.88460    0.076
 4328.00    0.98544   0.89911    0.077
 4329.00    1.01461   0.91792    0.076
 4330.00    1.04157   0.94196    0.000
 4331.00    1.07644   0.96346    0.000
 4332.00    1.11165   0.97228    0.000
 4333.00    1.16306   0.97022    0.000
 4334.00    1.21021   0.96252    0.000
 4335.00    1.15474   0.94435    0.000
 4336.00    1.09906   0.91336    0.000
 4337.00    1.04067   0.88093    0.000
 4338.00    0.98540   0.85239    0.000
 4339.00    0.95737   0.82480    0.000
 4340.00    0.93667   0.80643    0.000
 4341.00    0.96327   0.80564    0.000
 4342.00    0.99280   0.81467    0.000
 4343.00    1.03707   0.82954    0.000
 4344.00    1.06572   0.85618    0.000
 4345.00    1.03058   0.88652    0.000
 4346.00    1.01043   0.90794    0.000
 4347.00    1.04100   0.92525    0.000
 4348.00    1.05664   0.94319    0.000
 4349.00    1.02968   0.95072    0.000
 4350.00    0.99282   0.94458    0.000
 4351.00    0.93178   0.93990    0.076
 4352.00    0.90271   0.94344    0.076
 4353.00    0.94089   0.94502    0.077
 4354.00    1.00116   0.94362    0.078
 4355.00    1.10184   0.95178    0.078
 4356.00    1.12518   0.96950    0.077
 4357.00    1.02496   0.98372    0.078
 4358.00    0.95641   0.99354    0.077
 4359.00    0.93226   1.00885    0.077
 4360.00    0.98230   1.02780    0.077
 4361.00    1.12386   1.04038    0.078
 4362.00    1.16567   1.04764    0.079
 4363.00    1.09898   1.05790    0.078
 4364.00    1.04919   1.06805    0.078
 4365.00    1.01559   1.06841    0.078
 4366.00    1.03757   1.06066    0.078
 4367.00    1.10655   1.05348    0.078
 4368.00    1.13016   1.04605    0.078
 4369.00    1.11998   1.03238    0.078
 4370.00    1.08175   1.01645    0.078
 4371.00    1.02517   1.00486    0.078
 4372.00    1.01344   0.99502    0.078
 4373.00    1.02739   0.98313    0.076
 4374.00    0.99366   0.97340    0.076
 4375.00    0.93614   0.96981    0.076
 4376.00    0.96749   0.96913    0.076
 4377.00    1.03718   0.96531    0.077
 4378.00    1.06502   0.95652    0.077
 4379.00    1.07739   0.94499    0.077
 4380.00    0.99788   0.93142    0.077
 4381.00    0.88956   0.91075    0.076
 4382.00    0.87343   0.88220    0.076
 4383.00    0.88141   0.85784    0.076
 4384.00    0.91846   0.84686    0.076
 4385.00    0.96171   0.84416    0.076
 4386.00    0.96761   0.84480    0.076
 4387.00    0.96719   0.85457    0.076
 4388.00    0.94564   0.87427    0.075
 4389.00    0.92139   0.89418    0.075
 4390.00    0.92959   0.91070    0.075
 4391.00    0.94068   0.92828    0.076
 4392.00    0.91934   0.94573    0.076
 4393.00    0.89627   0.95835    0.076
 4394.00    0.93543   0.96893    0.076
 4395.00    0.97608   0.98200    0.077
 4396.00    1.03932   0.99364    0.077
 4397.00    1.09569   0.99906    0.077
 4398.00    1.00122   0.99914    0.076
 4399.00    0.92173   0.99362    0.074
 4400.00    1.02743   0.98456    0.076
 4401.00    1.11681   0.97558    0.077
 4402.00    1.06890   0.96074    0.077
 4403.00    1.02672   0.93823    0.077
 4404.00    1.02044   0.92356    0.077
 4405.00    1.00626   0.92312    0.078
 4406.00    0.95324   0.92321    0.076
 4407.00    0.91999   0.92323    0.075
 4408.00    0.96572   0.93713    0.075
 4409.00    1.00138   0.96006    0.076
 4410.00    1.00365   0.97686    0.076
 4411.00    1.00108   0.99025    0.076
 4412.00    0.98496   1.00467    0.075
 4413.00    1.01401   1.01082    0.075
 4414.00    1.15134   1.00897    0.076
 4415.00    1.20883   1.01091    0.076
 4416.00    1.10109   1.01455    0.075
 4417.00    1.03016   1.01476    0.075
 4418.00    1.02549   1.01833    0.075
 4419.00    1.02354   1.02716    0.075
 4420.00    1.02587   1.03274    0.075
 4421.00    1.02556   1.03311    0.075
 4422.00    1.02160   1.03440    0.075
 4423.00    1.05767   1.03684    0.076
 4424.00    1.14242   1.03518    0.077
 4425.00    1.19832   1.03050    0.077
 4426.00    1.22327   1.02855    0.076
 4427.00    1.21545   1.03022    0.076
 4428.00    1.17661   1.02907    0.076
 4429.00    1.14408   1.02242    0.076
 4430.00    1.11682   1.01809    0.076
 4431.00    1.12757   1.01739    0.076
 4432.00    1.16621   1.01287    0.075
 4433.00    1.12860   1.00567    0.075
 4434.00    1.04180   1.00361    0.074
 4435.00    1.01576   1.00793    0.074
 4436.00    1.02397   1.01412    0.074
 4437.00    1.01967   1.02063    0.075
 4438.00    1.00923   1.02877    0.076
 4439.00    1.03664   1.03658    0.076
 4440.00    1.08011   1.04150    0.075
 4441.00    1.09221   1.04395    0.075
 4442.00    1.09291   1.04540    0.074
 4443.00    1.13059   1.04869    0.075
 4444.00    1.17964   1.05582    0.077
 4445.00    1.20708   1.06288    0.077
 4446.00    1.22900   1.06795    0.077
 4447.00    1.24281   1.07634    0.076
 4448.00    1.25492   1.08381    0.075
 4449.00    1.21928   1.08130    0.075
 4450.00    1.17578   1.07365    0.075
 4451.00    1.12154   1.06561    0.075
 4452.00    1.06597   1.05152    0.074
 4453.00    1.08765   1.02995    0.073
 4454.00    1.11591   1.00824    0.072
 4455.00    1.08179   0.99160    0.071
 4456.00    1.04459   0.97625    0.071
 4457.00    1.07739   0.96036    0.071
 4458.00    1.10943   0.95056    0.072
 4459.00    1.02324   0.94961    0.071
 4460.00    0.94337   0.94976    0.071
 4461.00    0.99172   0.95157    0.000
 4462.00    1.03999   0.96294    0.000
 4463.00    1.08741   0.97690    0.000
 4464.00    1.12530   0.98599    0.000
 4465.00    1.08597   0.99672    0.000
 4466.00    1.05456   1.01111    0.000
 4467.00    1.07132   1.02190    0.000
 4468.00    1.08944   1.02897    0.000
 4469.00    1.11410   1.03980    0.000
 4470.00    1.14397   1.05332    0.000
 4471.00    1.19424   1.06588    0.000
 4472.00    1.22123   1.08039    0.000
 4473.00    1.17252   1.09663    0.000
 4474.00    1.12705   1.10901    0.000
 4475.00    1.09049   1.11776    0.000
 4476.00    1.08972   1.12493    0.000
 4477.00    1.17328   1.12605    0.000
 4478.00    1.23751   1.11951    0.000
 4479.00    1.26236   1.11048    0.000
 4480.00    1.25026   1.10222    0.000
 4481.00    1.17264   1.09514    0.000
 4482.00    1.10964   1.09233    0.071
 4483.00    1.06932   1.09377    0.071
 4484.00    1.10224   1.09701    0.071
 4485.00    1.23490   1.10194    0.071
 4486.00    1.27675   1.10633    0.072
 4487.00    1.20969   1.10634    0.072
 4488.00    1.17757   1.10222    0.071
 4489.00    1.18237   1.09638    0.070
 4490.00    1.19051   1.08993    0.069
 4491.00    1.20177   1.08358    0.070
 4492.00    1.17723   1.07739    0.071
 4493.00    1.12328   1.07154    0.071
 4494.00    1.11535   1.07029    0.071
 4495.00    1.14071   1.07411    0.070
 4496.00    1.16889   1.07958    0.070
 4497.00    1.19885   1.08790    0.070
 4498.00    1.17374   1.10153    0.070
 4499.00    1.11805   1.11744    0.070
 4500.00    1.14184   1.13120    0.070
 4501.00    1.20403   1.14707    0.070
 4502.00    1.17382   1.16641    0.071
 4503.00    1.10506   1.18144    0.071
 4504.00    1.13197   1.19128    0.071
 4505.00    1.19301   1.20052    0.070
 4506.00    1.23892   1.20696    0.070
 4507.00    1.28026   1.20751    0.070
 4508.00    1.26501   1.20503    0.070
 4509.00    1.23558   1.20140    0.069
 4510.00    1.20868   1.19448    0.069
 4511.00    1.18230   1.18481    0.069
 4512.00    1.14514   1.17519    0.069
 4513.00    1.10625   1.16536    0.069
 4514.00    1.14338   1.15609    0.068
 4515.00    1.18955   1.14995    0.067
 4516.00    1.22536   1.14510    0.069
 4517.00    1.26034   1.14073    0.070
 4518.00    1.24268   1.13930    0.069
 4519.00    1.22262   1.13913    0.067
 4520.00    1.15904   1.13696    0.068
 4521.00    1.09680   1.12974    0.068
 4522.00    1.13022   1.11894    0.068
 4523.00    1.16124   1.10674    0.068
 4524.00    1.14727   1.08923    0.067
 4525.00    1.13688   1.06714    0.066
 4526.00    1.16663   1.04620    0.067
 4527.00    1.18845   1.02786    0.068
 4528.00    1.14815   1.01222    0.068
 4529.00    1.10583   1.00132    0.068
 4530.00    1.05166   0.99564    0.067
 4531.00    1.01854   0.99634    0.067
 4532.00    1.08399   1.00174    0.067
 4533.00    1.12534   1.00935    0.067
 4534.00    1.07463   1.01948    0.066
 4535.00    1.04527   1.03427    0.066
 4536.00    1.08403   1.05203    0.067
 4537.00    1.11448   1.06641    0.068
 4538.00    1.12253   1.07865    0.068
 4539.00    1.13511   1.09045    0.068
 4540.00    1.15820   1.09797    0.068
 4541.00    1.17190   1.10175    0.068
 4542.00    1.16675   1.10440    0.067
 4543.00    1.14392   1.10318    0.066
 4544.00    1.09021   1.09823    0.066
 4545.00    1.06677   1.09456    0.066
 4546.00    1.08959   1.09147    0.065
 4547.00    1.09644   1.08575    0.065
 4548.00    1.08182   1.07854    0.065
 4549.00    1.09001   1.07528    0.065
 4550.00    1.12516   1.07479    0.000
 4551.00    1.16181   1.07173    0.000
 4552.00    1.20003   1.07095    0.000
 4553.00    1.22285   1.07568    0.000
 4554.00    1.23150   1.08167    0.000
 4555.00    1.21083   1.08950    0.000
 4556.00    1.16640   1.10185    0.000
 4557.00    1.19104   1.11501    0.000
 4558.00    1.26492   1.12645    0.000
 4559.00    1.25076   1.13615    0.000
 4560.00    1.18150   1.14326    0.000
 4561.00    1.15599   1.14703    0.000
 4562.00    1.15441   1.14640    0.000
 4563.00    1.19753   1.14332    0.000
 4564.00    1.26189   1.14045    0.000
 4565.00    1.24263   1.13932    0.000
 4566.00    1.18907   1.14015    0.000
 4567.00    1.15004   1.14067    0.000
 4568.00    1.11608   1.14303    0.000
 4569.00    1.15000   1.14818    0.000
 4570.00    1.20398   1.14899    0.000
 4571.00    1.25066   1.14844    0.000
 4572.00    1.29556   1.15296    0.000
 4573.00    1.27618   1.15405    0.000
 4574.00    1.24407   1.14932    0.000
 4575.00    1.20778   1.14674    0.000
 4576.00    1.17084   1.14354    0.000
 4577.00    1.15914   1.13468    0.000
 4578.00    1.15032   1.12389    0.000
 4579.00    1.18549   1.11355    0.000
 4580.00    1.22404   1.10373    0.000
 4581.00    1.25484   1.09607    0.000
 4582.00    1.28532   1.09007    0.000
 4583.00    1.26311   1.08734    0.000
 4584.00    1.23973   1.08955    0.000
 4585.00    1.18578   1.09355    0.000
 4586.00    1.13683   1.09910    0.000
 4587.00    1.17532   1.10641    0.000
 4588.00    1.20870   1.11279    0.000
 4589.00    1.18756   1.11658    0.000
 4590.00    1.16741   1.11715    0.000
 4591.00    1.15482   1.11488    0.000
 4592.00    1.14791   1.11135    0.000
 4593.00    1.17367   1.10589    0.000
 4594.00    1.19727   1.09910    0.000
 4595.00    1.21102   1.09465    0.000
 4596.00    1.21865   1.09123    0.000
 4597.00    1.20338   1.08856    0.000
 4598.00    1.18138   1.08936    0.000
 4599.00    1.13832   1.09003    0.000
 4600.00    1.11941   1.09113    0.000
 4601.00    1.16460   1.09578    0.000
 4602.00    1.21004   1.10074    0.000
 4603.00    1.25610   1.10613    0.000
 4604.00    1.26695   1.11449    0.000
 4605.00    1.20834   1.12525    0.000
 4606.00    1.15865   1.13661    0.000
 4607.00    1.12428   1.14926    0.000
 4608.00    1.13338   1.16206    0.000
 4609.00    1.20794   1.17143    0.000
 4610.00    1.26957   1.17865    0.000
 4611.00    1.31409   1.18458    0.000
 4612.00    1.30835   1.18614    0.000
 4613.00    1.24406   1.18675    0.000
 4614.00    1.21057   1.18847    0.000
 4615.00    1.20873   1.18693    0.000
 4616.00    1.23085   1.18688    0.000
 4617.00    1.27469   1.18952    0.000
 4618.00    1.28934   1.18817    0.000
 4619.00    1.28067   1.18797    0.000
 4620.00    1.26201   1.19174    0.000
 4621.00    1.23633   1.19091    0.000
 4622.00    1.23879   1.18865    0.000
 4623.00    1.25861   1.19070    0.000
 4624.00    1.24346   1.18981    0.000
 4625.00    1.20948   1.18525    0.000
 4626.00    1.17071   1.18442    0.000
 4627.00    1.12970   1.18419    0.000
 4628.00    1.16133   1.17907    0.000
 4629.00    1.22225   1.17474    0.000
 4630.00    1.25901   1.17387    0.000
 4631.00    1.28747   1.16910    0.000
 4632.00    1.30408   1.16043    0.000
 4633.00    1.31727   1.15376    0.000
 4634.00    1.28030   1.14705    0.000
 4635.00    1.23133   1.13715    0.000
 4636.00    1.16760   1.12664    0.000
 4637.00    1.10102   1.11917    0.000
 4638.00    1.10127   1.11257    0.000
 4639.00    1.11156   1.10425    0.000
 4640.00    1.11709   1.09903    0.000
 4641.00    1.12209   1.09569    0.000
 4642.00    1.12832   1.08830    0.000
 4643.00    1.13464   1.08102    0.000
 4644.00    1.08601   1.07580    0.000
 4645.00    1.03531   1.06788    0.000
 4646.00    1.08338   1.06100    0.000
 4647.00    1.13041   1.05922    0.000
 4648.00    1.12035   1.06002    0.000
 4649.00    1.10987   1.06374    0.000
 4650.00    1.09252   1.07054    0.000
 4651.00    1.08158   1.07934    0.000
 4652.00    1.13632   1.08924    0.000
 4653.00    1.18466   1.09743    0.000
 4654.00    1.18626   1.10542    0.000
 4655.00    1.19080   1.11447    0.000
 4656.00    1.21184   1.12232    0.000
 4657.00    1.22881   1.13006    0.000
 4658.00    1.22768   1.13766    0.000
 4659.00    1.21912   1.14177    0.000
 4660.00    1.18337   1.14180    0.000
 4661.00    1.16732   1.13760    0.000
 4662.00    1.21171   1.12656    0.000
 4663.00    1.23266   1.11072    0.000
 4664.00    1.19246   1.09411    0.000
 4665.00    1.16164   1.07546    0.000
 4666.00    1.15184   1.05718    0.000
 4667.00    1.12780   1.04630    0.000
 4668.00    1.07613   1.04210    0.000
 4669.00    1.05529   1.04190    0.000
 4670.00    1.08668   1.04813    0.000
 4671.00    1.10398   1.05932    0.000
 4672.00    1.10039   1.07147    0.000
 4673.00    1.10204   1.08286    0.000
 4674.00    1.11051   1.09245    0.000
 4675.00    1.13084   1.10023    0.000
 4676.00    1.16477   1.10419    0.000
 4677.00    1.17857   1.10346    0.000
 4678.00    1.17198   1.10175    0.000
 4679.00    1.15886   1.09999    0.000
 4680.00    1.13990   1.09607    0.000
 4681.00    1.13143   1.09288    0.000
 4682.00    1.13121   1.09359    0.000
 4683.00    1.10512   1.09423    0.000
 4684.00    1.06109   1.09436    0.000
 4685.00    1.08421   1.09745    0.000
 4686.00    1.14811   1.09965    0.000
 4687.00    1.14467   1.09917    0.000
 4688.00    1.10552   1.10046    0.000
 4689.00    1.10802   1.10158    0.000
 4690.00    1.12969   1.10038    0.000
 4691.00    1.13622   1.10119    0.000
 4692.00    1.13676   1.10344    0.000
 4693.00    1.13441   1.10359    0.000
 4694.00    1.13107   1.10319    0.000
 4695.00    1.14697   1.10302    0.000
 4696.00    1.16834   1.10025    0.000
 4697.00    1.16653   1.09372    0.000
 4698.00    1.15929   1.08627    0.000
 4699.00    1.10974   1.07904    0.000
 4700.00    1.05222   1.07082    0.000
 4701.00    1.03604   1.06302    0.000
 4702.00    1.02587   1.05735    0.000
 4703.00    1.04619   1.05437    0.000
 4704.00    1.06974   1.05344    0.000
 4705.00    1.06032   1.05293    0.000
 4706.00    1.04864   1.05408    0.000
 4707.00    1.10841   1.05792    0.000
 4708.00    1.17061   1.06128    0.000
 4709.00    1.12446   1.06497    0.000
 4710.00    1.07977   1.07103    0.000
 4711.00    1.08780   1.07722    0.000
 4712.00    1.09505   1.08418    0.000
 4713.00    1.09041   1.09211    0.000
 4714.00    1.08885   1.10074    0.000
 4715.00    1.11755   1.11233    0.000
 4716.00    1.14806   1.12424    0.000
 4717.00    1.19134   1.13527    0.000
 4718.00    1.22936   1.14790    0.000
 4719.00    1.23881   1.15932    0.000
 4720.00    1.24607   1.16701    0.000
 4721.00    1.24376   1.17187    0.000
 4722.00    1.23262   1.17316    0.000
 4723.00    1.18979   1.16950    0.000
 4724.00    1.16158   1.16176    0.000
 4725.00    1.17741   1.15105    0.000
 4726.00    1.18334   1.13671    0.000
 4727.00    1.16393   1.12126    0.000
 4728.00    1.14650   1.10852    0.000
 4729.00    1.13346   1.09693    0.000
 4730.00    1.11922   1.08785    0.000
 4731.00    1.10268   1.08611    0.000
 4732.00    1.11254   1.08696    0.000
 4733.00    1.16643   1.08888    0.000
 4734.00    1.17953   1.09716    0.000
 4735.00    1.13302   1.10499    0.000
 4736.00    1.10279   1.10969    0.000
 4737.00    1.09349   1.11854    0.000
 4738.00    1.10465   1.12667    0.000
 4739.00    1.13896   1.13075    0.000
 4740.00    1.16674   1.13658    0.000
 4741.00    1.18797   1.14276    0.000
 4742.00    1.19887   1.14760    0.000
 4743.00    1.20068   1.15232    0.000
 4744.00    1.19427   1.15607    0.000
 4745.00    1.18148   1.16057    0.000
 4746.00    1.17851   1.16483    0.000
 4747.00    1.18224   1.16576    0.000
 4748.00    1.17134   1.16593    0.000
 4749.00    1.15170   1.16600    0.000
 4750.00    1.17603   1.16243    0.000
 4751.00    1.22333   1.15668    0.000
 4752.00    1.18572   1.15147    0.000
 4753.00    1.10969   1.14528    0.000
 4754.00    1.13114   1.13837    0.000
 4755.00    1.19055   1.13291    0.000
 4756.00    1.19597   1.12885    0.000
 4757.00    1.18350   1.12430    0.000
 4758.00    1.18814   1.11932    0.000
 4759.00    1.19753   1.11534    0.000
 4760.00    1.14422   1.10958    0.000
 4761.00    1.07657   1.10081    0.061
 4762.00    1.07665   1.09323    0.061
 4763.00    1.08913   1.08658    0.061
 4764.00    1.06723   1.07889    0.061
 4765.00    1.04049   1.07476    0.061
 4766.00    1.02923   1.07589    0.060
 4767.00    1.01954   1.07839    0.059
 4768.00    1.05415   1.08389    0.060
 4769.00    1.09163   1.09403    0.061
 4770.00    1.14225   1.10464    0.061
 4771.00    1.19321   1.11478    0.061
 4772.00    1.20851   1.12570    0.061
 4773.00    1.22332   1.13672    0.060
 4774.00    1.22371   1.14563    0.059
 4775.00    1.22254   1.15163    0.059
 4776.00    1.19889   1.15731    0.060
 4777.00    1.17751   1.16123    0.060
 4778.00    1.17733   1.15987    0.060
 4779.00    1.17553   1.15600    0.059
 4780.00    1.16259   1.15236    0.059
 4781.00    1.15137   1.14568    0.059
 4782.00    1.14929   1.13506    0.057
 4783.00    1.14791   1.12748    0.056
 4784.00    1.14953   1.12238    0.057
 4785.00    1.15046   1.11372    0.057
 4786.00    1.14896   1.10930    0.057
 4787.00    1.13748   1.11132    0.057
 4788.00    1.09654   1.11125    0.057
 4789.00    1.06951   1.11449    0.057
 4790.00    1.07754   1.12428    0.058
 4791.00    1.09816   1.13269    0.058
 4792.00    1.14606   1.14128    0.058
 4793.00    1.18057   1.15251    0.058
 4794.00    1.18986   1.16071    0.058
 4795.00    1.19270   1.16522    0.059
 4796.00    1.18492   1.16855    0.059
 4797.00    1.19077   1.16905    0.059
 4798.00    1.21623   1.16646    0.059
 4799.00    1.21563   1.16360    0.059
 4800.00    1.18200   1.16075    0.059
 4801.00    1.16559   1.15736    0.058
 4802.00    1.16840   1.15495    0.058
 4803.00    1.17121   1.15239    0.059
 4804.00    1.17402   1.14847    0.059
 4805.00    1.17852   1.14585    0.059
 4806.00    1.18451   1.14290    0.058
 4807.00    1.18787   1.13857    0.058
 4808.00    1.18924   1.13721    0.058
 4809.00    1.15830   1.13768    0.058
 4810.00    1.10563   1.13805    0.058
 4811.00    1.08453   1.14118    0.058
 4812.00    1.08203   1.14652    0.058
 4813.00    1.09136   1.15187    0.058
 4814.00    1.10678   1.15779    0.058
 4815.00    1.14401   1.16458    0.058
 4816.00    1.19096   1.17007    0.058
 4817.00    1.20240   1.17372    0.059
 4818.00    1.20024   1.17659    0.059
 4819.00    1.17114   1.17575    0.058
 4820.00    1.13327   1.17188    0.057
 4821.00    1.12952   1.16787    0.058
 4822.00    1.13507   1.16033    0.059
 4823.00    1.12236   1.15180    0.059
 4824.00    1.10556   1.14621    0.058
 4825.00    1.10086   1.13966    0.058
 4826.00    1.09831   1.13422    0.058
 4827.00    1.07397   1.13159    0.058
 4828.00    1.04666   1.12826    0.057
 4829.00    1.10492   1.12652    0.058
 4830.00    1.17150   1.12569    0.059
 4831.00    1.15325   1.12325    0.059
 4832.00    1.12985   1.12288    0.058
 4833.00    1.10557   1.12354    0.058
 4834.00    1.08144   1.12212    0.058
 4835.00    1.09052   1.12099    0.058
 4836.00    1.09844   1.12047    0.058
 4837.00    1.07628   1.11837    0.058
 4838.00    1.05794   1.11472    0.057
 4839.00    1.09161   1.11098    0.058
 4840.00    1.12361   1.10839    0.058
 4841.00    1.14047   1.10590    0.058
 4842.00    1.15599   1.10296    0.058
 4843.00    1.16262   1.10263    0.057
 4844.00    1.16531   1.10334    0.057
 4845.00    1.14770   1.10212    0.058
 4846.00    1.12998   1.10209    0.059
 4847.00    1.11177   1.10103    0.058
 4848.00    1.10658   1.09660    0.000
 4849.00    1.14618   1.09289    0.000
 4850.00    1.16345   1.08616    0.000
 4851.00    1.11597   1.07473    0.000
 4852.00    1.08970   1.06429    0.000
 4853.00    1.11596   1.05082    0.000
 4854.00    1.13234   1.03123    0.000
 4855.00    1.12764   1.01261    0.000
 4856.00    1.09710   0.99360    0.000
 4857.00    1.01868   0.96965    0.000
 4858.00    0.96935   0.94858    0.000
 4859.00    0.96712   0.93235    0.000
 4860.00    0.96769   0.91557    0.000
 4861.00    0.97222   0.90594    0.000
 4862.00    0.96437   0.90605    0.000
 4863.00    0.94105   0.90783    0.000
 4864.00    0.93231   0.91551    0.000
 4865.00    0.93960   0.93054    0.000
 4866.00    0.95221   0.94323    0.000
 4867.00    0.96998   0.95362    0.000
 4868.00    0.99334   0.96565    0.000
 4869.00    1.02148   0.97446    0.000
 4870.00    1.02972   0.97803    0.000
 4871.00    1.02295   0.98311    0.000
 4872.00    1.00257   0.99120    0.000
 4873.00    0.97318   0.99782    0.000
 4874.00    0.99904   1.00593    0.000
 4875.00    1.05698   1.01997    0.058
 4876.00    1.06527   1.03394    0.058
 4877.00    1.04846   1.04407    0.057
 4878.00    1.06029   1.05646    0.057
 4879.00    1.08466   1.06732    0.058
 4880.00    1.11122   1.06970    0.059
 4881.00    1.13861   1.07069    0.059
 4882.00    1.13087   1.07076    0.059
 4883.00    1.11193   1.06384    0.059
 4884.00    1.08975   1.05519    0.058
 4885.00    1.06672   1.04861    0.058
 4886.00    1.07507   1.04086    0.058
 4887.00    1.09026   1.03309    0.059
 4888.00    1.02952   1.03090    0.059
 4889.00    0.95562   1.03313    0.059
 4890.00    1.00031   1.03683    0.058
 4891.00    1.06061   1.04845    0.058
 4892.00    1.07966   1.06561    0.058
 4893.00    1.09488   1.08165    0.058
 4894.00    1.11528   1.10228    0.058
 4895.00    1.13598   1.12280    0.057
 4896.00    1.15257   1.13639    0.058
 4897.00    1.16882   1.14902    0.058
 4898.00    1.15911   1.15699    0.059
 4899.00    1.14974   1.15728    0.060
 4900.00    1.14842   1.15744    0.059
 4901.00    1.14774   1.15559    0.058
 4902.00    1.15525   1.14994    0.057
 4903.00    1.15754   1.14653    0.057
 4904.00    1.11433   1.14398    0.057
 4905.00    1.07865   1.13945    0.057
 4906.00    1.09136   1.13496    0.057
 4907.00    1.10404   1.13104    0.056
 4908.00    1.11658   1.12643    0.057
 4909.00    1.12557   1.12048    0.057
 4910.00    1.12005   1.11563    0.058
 4911.00    1.11123   1.11251    0.058
 4912.00    1.09124   1.10823    0.057
 4913.00    1.08910   1.10363    0.057
 4914.00    1.13776   1.09905    0.057
 4915.00    1.16465   1.09102    0.057
 4916.00    1.13858   1.07961    0.057
 4917.00    1.11129   1.06656    0.056
 4918.00    1.08147   1.05239    0.056
 4919.00    1.04952   1.03884    0.055
 4920.00    1.01366   1.02851    0.055
 4921.00    0.99678   1.02430    0.055
 4922.00    1.01016   1.02657    0.055
 4923.00    1.02062   1.03386    0.055
 4924.00    1.02699   1.04749    0.055
 4925.00    1.03329   1.06625    0.055
 4926.00    1.03949   1.08406    0.056
 4927.00    1.06093   1.10120    0.055
 4928.00    1.09892   1.11912    0.054
 4929.00    1.11339   1.12975    0.054
 4930.00    1.10535   1.13436    0.054
 4931.00    1.10693   1.13829    0.054
 4932.00    1.11664   1.13380    0.054
 4933.00    1.09276   1.12433    0.054
 4934.00    1.04392   1.11740    0.054
 4935.00    1.01519   1.10638    0.054
 4936.00    0.99959   1.09546    0.054
 4937.00    0.98615   1.09128    0.054
 4938.00    0.97394   1.08811    0.054
 4939.00    0.98481   1.08896    0.054
 4940.00    1.00718   1.09682    0.000
 4941.00    1.04840   1.10566    0.000
 4942.00    1.09773   1.11739    0.000
 4943.00    1.12062   1.13225    0.000
 4944.00    1.13375   1.14383    0.000
 4945.00    1.16698   1.15443    0.000
 4946.00    1.20651   1.16557    0.000
 4947.00    1.16669   1.17196    0.000
 4948.00    1.10618   1.17488    0.000
 4949.00    1.10540   1.17711    0.000
 4950.00    1.11734   1.17545    0.000
 4951.00    1.12961   1.16895    0.000
 4952.00    1.14192   1.16026    0.000
 4953.00    1.17088   1.14853    0.000
 4954.00    1.20195   1.13412    0.000
 4955.00    1.18061   1.12056    0.000
 4956.00    1.15461   1.10654    0.000
 4957.00    1.13818   1.09596    0.000
 4958.00    1.12226   1.09226    0.000
 4959.00    1.05999   1.08896    0.000
 4960.00    0.99806   1.08963    0.000
 4961.00    1.03281   1.09568    0.000
 4962.00    1.06635   1.09937    0.000
 4963.00    1.07339   1.10181    0.000
 4964.00    1.08057   1.10357    0.000
 4965.00    1.08943   1.10407    0.000
 4966.00    1.09316   1.10373    0.000
 4967.00    1.05404   1.10158    0.000
 4968.00    1.02459   1.10231    0.000
 4969.00    1.05553   1.10529    0.000
 4970.00    1.08083   1.10786    0.000
 4971.00    1.07853   1.11294    0.000
 4972.00    1.07722   1.11748    0.000
 4973.00    1.07981   1.12036    0.000
 4974.00    1.07877   1.12153    0.000
 4975.00    1.06570   1.11779    0.000
 4976.00    1.06173   1.11131    0.000
 4977.00    1.08320   1.10086    0.000
 4978.00    1.07547   1.08593    0.000
 4979.00    0.99789   1.07099    0.000
 4980.00    0.95679   1.05515    0.000
 4981.00    0.99102   1.03928    0.000
 4982.00    1.01029   1.02810    0.000
 4983.00    1.00267   1.02199    0.000
 4984.00    0.99458   1.01856    0.000
 4985.00    0.98575   1.02031    0.000
 4986.00    0.98844   1.02874    0.000
 4987.00    1.00704   1.03721    0.000
 4988.00    1.02867   1.04630    0.000
 4989.00    1.05397   1.05808    0.000
 4990.00    1.07276   1.06583    0.000
 4991.00    1.08457   1.07233    0.000
 4992.00    1.06720   1.07821    0.000
 4993.00    1.02229   1.07871    0.000
 4994.00    1.00822   1.08009    0.000
 4995.00    1.01982   1.07914    0.000
 4996.00    1.02637   1.07263    0.000
 4997.00    1.02923   1.06789    0.000
 4998.00    1.02902   1.06004    0.000
 4999.00    1.02681   1.04836    0.000
 5000.00    1.04706   1.03884    0.000
 5001.00    1.07995   1.02768    0.000
 5002.00    1.05098   1.01636    0.000
 5003.00    0.99171   1.00848    0.000
 5004.00    0.98496   1.00154    0.000
 5005.00    1.00045   0.99612    0.000
 5006.00    1.02210   0.99399    0.000
 5007.00    1.04598   0.99345    0.000
 5008.00    1.02263   0.99169    0.000
 5009.00    0.98480   0.99076    0.000
 5010.00    0.99395   0.99070    0.000
 5011.00    1.01511   0.98668    0.000
 5012.00    0.96348   0.98210    0.000
 5013.00    0.89674   0.97855    0.000
 5014.00    0.90414   0.97357    0.000
 5015.00    0.92367   0.97097    0.000
 5016.00    0.92832   0.96978    0.000
 5017.00    0.93115   0.97009    0.000
 5018.00    0.96191   0.97415    0.000
 5019.00    0.99503   0.97841    0.000
 5020.00    0.96698   0.98346    0.000
 5021.00    0.93594   0.99010    0.000
 5022.00    0.93161   0.99753    0.000
 5023.00    0.92814   1.00519    0.000
 5024.00    0.95150   1.01125    0.000
 5025.00    0.97589   1.01973    0.000
 5026.00    1.02070   1.02841    0.000
 5027.00    1.06124   1.03498    0.000
 5028.00    1.05191   1.04477    0.000
 5029.00    1.04245   1.05235    0.052
 5030.00    1.03192   1.05780    0.052
 5031.00    1.02206   1.06502    0.052
 5032.00    1.01633   1.06693    0.052
 5033.00    1.00698   1.06499    0.052
 5034.00    0.98030   1.06064    0.052
 5035.00    0.95963   1.05076    0.051
 5036.00    0.96234   1.04010    0.051
 5037.00    0.97250   1.02672    0.052
 5038.00    1.00683   1.01203    0.053
 5039.00    1.02681   1.00405    0.053
 5040.00    1.00737   0.99786    0.053
 5041.00    0.98272   0.99583    0.052
 5042.00    0.94578   1.00160    0.051
 5043.00    0.94477   1.00804    0.051
 5044.00    1.01679   1.01857    0.052
 5045.00    1.05639   1.03158    0.053
 5046.00    1.03861   1.03948    0.053
 5047.00    1.02449   1.04539    0.052
 5048.00    1.01605   1.05012    0.052
 5049.00    1.01815   1.05184    0.053
 5050.00    1.03457   1.05180    0.053
 5051.00    1.01950   1.05278    0.053
 5052.00    0.96672   1.05701    0.052
 5053.00    0.94815   1.06267    0.052
 5054.00    0.96567   1.06977    0.053
 5055.00    0.99108   1.07918    0.053
 5056.00    1.02384   1.08877    0.053
 5057.00    1.04805   1.09786    0.053
 5058.00    1.06523   1.10418    0.053
 5059.00    1.06970   1.10774    0.053
 5060.00    1.06499   1.10961    0.053
 5061.00    1.06078   1.10651    0.054
 5062.00    1.05688   1.10047    0.054
 5063.00    1.05881   1.09275    0.054
 5064.00    1.06397   1.08237    0.054
 5065.00    1.03992   1.07318    0.054
 5066.00    1.00179   1.06332    0.054
 5067.00    0.98537   1.05381    0.054
 5068.00    0.97798   1.04937    0.054
 5069.00    0.97622   1.04623    0.054
 5070.00    0.97647   1.04238    0.054
 5071.00    0.98854   1.04017    0.055
 5072.00    1.00416   1.04004    0.055
 5073.00    1.00107   1.03812    0.055
 5074.00    0.99331   1.03283    0.056
 5075.00    0.95754   1.02817    0.055
 5076.00    0.91610   1.02331    0.055
 5077.00    0.92462   1.01535    0.054
 5078.00    0.94109   1.00620    0.054
 5079.00    0.96798   0.99992    0.053
 5080.00    0.99612   0.99613    0.053
 5081.00    0.97005   0.99205    0.053
 5082.00    0.93963   0.99164    0.053
 5083.00    0.93225   0.99742    0.052
 5084.00    0.92591   1.00543    0.052
 5085.00    0.95332   1.01387    0.052
 5086.00    0.98106   1.02451    0.051
 5087.00    1.00539   1.03643    0.052
 5088.00    1.02914   1.04705    0.052
 5089.00    1.04230   1.05585    0.052
 5090.00    1.05300   1.06277    0.052
 5091.00    1.03628   1.06805    0.052
 5092.00    1.01541   1.07025    0.051
 5093.00    0.96211   1.06839    0.051
 5094.00    0.92005   1.06449    0.051
 5095.00    0.94416   1.05859    0.051
 5096.00    0.96843   1.05038    0.051
 5097.00    0.99351   1.04159    0.051
 5098.00    1.01231   1.03316    0.051
 5099.00    1.00721   1.02721    0.051
 5100.00    0.99953   1.02302    0.050
 5101.00    0.98368   1.01897    0.050
 5102.00    0.96148   1.01821    0.049
 5103.00    0.92219   1.01870    0.049
 5104.00    0.89670   1.01736    0.049
 5105.00    0.90313   1.01646    0.049
 5106.00    0.91284   1.01478    0.050
 5107.00    0.92912   1.01326    0.050
 5108.00    0.93976   1.01433    0.050
 5109.00    0.94056   1.01431    0.049
 5110.00    0.92232   1.01721    0.049
 5111.00    0.87502   1.02444    0.049
 5112.00    0.86940   1.02992    0.049
 5113.00    0.91963   1.03837    0.049
 5114.00    0.95909   1.04821    0.050
 5115.00    0.98584   1.05418    0.052
 5116.00    0.99166   1.06011    0.052
 5117.00    0.97569   1.06270    0.052
 5118.00    0.97880   1.06035    0.052
 5119.00    0.99942   1.05613    0.051
 5120.00    1.01041   1.04745    0.051
 5121.00    1.01361   1.03603    0.052
 5122.00    1.00042   1.02338    0.051
 5123.00    0.97557   1.00982    0.050
 5124.00    0.94818   0.99886    0.050
 5125.00    0.91920   0.98928    0.050
 5126.00    0.91905   0.98194    0.050
 5127.00    0.93465   0.97956    0.050
 5128.00    0.91147   0.97992    0.051
 5129.00    0.86988   0.98252    0.051
 5130.00    0.86485   0.98743    0.051
 5131.00    0.87478   0.99319    0.050
 5132.00    0.88295   0.99926    0.050
 5133.00    0.89051   1.00411    0.050
 5134.00    0.92896   1.00855    0.051
 5135.00    0.97651   1.01006    0.052
 5136.00    0.95008   1.00760    0.052
 5137.00    0.90556   1.00683    0.052
 5138.00    0.92374   1.00263    0.052
 5139.00    0.95431   0.99613    0.052
 5140.00    0.93225   0.99299    0.052
 5141.00    0.90208   0.98643    0.052
 5142.00    0.89949   0.98200    0.052
 5143.00    0.90004   0.98192    0.051
 5144.00    0.92440   0.97685    0.051
 5145.00    0.95057   0.97365    0.052
 5146.00    0.93671   0.97472    0.053
 5147.00    0.92119   0.97283    0.053
 5148.00    0.91180   0.97195    0.053
 5149.00    0.90247   0.97271    0.052
 5150.00    0.89420   0.97317    0.052
 5151.00    0.88697   0.97664    0.052
 5152.00    0.89780   0.98083    0.052
 5153.00    0.91000   0.98494    0.052
 5154.00    0.93691   0.99240    0.052
 5155.00    0.95743   1.00025    0.053
 5156.00    0.92991   1.00667    0.053
 5157.00    0.91818   1.01343    0.053
 5158.00    0.99688   1.01653    0.053
 5159.00    1.05347   1.01531    0.053
 5160.00    1.00933   1.00989    0.053
 5161.00    0.96103   0.99616    0.052
 5162.00    0.89724   0.97806    0.051
 5163.00    0.84607   0.95608    0.051
 5164.00    0.83430   0.92758    0.051
 5165.00    0.82080   0.89829    0.051
 5166.00    0.80276   0.86955    0.050
 5167.00    0.78192   0.84282    0.050
 5168.00    0.75473   0.82178    0.050
 5169.00    0.73252   0.80591    0.050
 5170.00    0.72011   0.79695    0.050
 5171.00    0.70131   0.79639    0.050
 5172.00    0.67155   0.80377    0.049
 5173.00    0.67573   0.81600    0.049
 5174.00    0.73094   0.82976    0.049
 5175.00    0.79006   0.84629    0.049
 5176.00    0.85436   0.86481    0.049
 5177.00    0.86385   0.87908    0.049
 5178.00    0.80960   0.88677    0.049
 5179.00    0.79383   0.89024    0.048
 5180.00    0.81754   0.88920    0.048
 5181.00    0.81878   0.88472    0.048
 5182.00    0.79969   0.87856    0.048
 5183.00    0.79499   0.87498    0.047
 5184.00    0.80176   0.87714    0.048
 5185.00    0.80687   0.88021    0.048
 5186.00    0.81081   0.88806    0.048
 5187.00    0.82269   0.90295    0.048
 5188.00    0.83945   0.91705    0.048
 5189.00    0.85992   0.92993    0.048
 5190.00    0.88239   0.93993    0.000
 5191.00    0.87648   0.94723    0.000
 5192.00    0.85732   0.95587    0.000
 5193.00    0.86957   0.96135    0.000
 5194.00    0.89446   0.96374    0.000
 5195.00    0.91460   0.97009    0.000
 5196.00    0.93310   0.97778    0.000
 5197.00    0.95891   0.98280    0.000
 5198.00    0.98683   0.98763    0.000
 5199.00    0.95364   0.99058    0.000
 5200.00    0.90585   0.99038    0.000
 5201.00    0.92772   0.98711    0.000
 5202.00    0.96299   0.97914    0.000
 5203.00    0.93974   0.96864    0.000
 5204.00    0.90773   0.95657    0.000
 5205.00    0.90235   0.94512    0.000
 5206.00    0.89988   0.93664    0.000
 5207.00    0.84925   0.92939    0.000
 5208.00    0.79514   0.92837    0.000
 5209.00    0.85021   0.93414    0.000
 5210.00    0.90935   0.94136    0.000
 5211.00    0.92483   0.95331    0.051
 5212.00    0.93995   0.96789    0.051
 5213.00    0.94944   0.98183    0.051
 5214.00    0.95851   0.99554    0.051
 5215.00    0.96066   1.00741    0.052
 5216.00    0.96381   1.01735    0.052
 5217.00    0.97716   1.02439    0.052
 5218.00    0.98910   1.02893    0.051
 5219.00    0.99086   1.03104    0.052
 5220.00    0.99410   1.03010    0.052
 5221.00    1.00555   1.02569    0.052
 5222.00    1.00745   1.01845    0.052
 5223.00    0.96687   1.00902    0.052
 5224.00    0.93576   0.99822    0.052
 5225.00    0.93925   0.98903    0.052
 5226.00    0.93253   0.98080    0.052
 5227.00    0.89452   0.97670    0.052
 5228.00    0.87441   0.97729    0.052
 5229.00    0.90086   0.97899    0.051
 5230.00    0.92171   0.98710    0.051
 5231.00    0.93005   0.99727    0.050
 5232.00    0.94034   1.00540    0.050
 5233.00    0.95440   1.01707    0.051
 5234.00    0.98119   1.02749    0.051
 5235.00    1.02948   1.03714    0.051
 5236.00    1.03935   1.04863    0.051
 5237.00    0.99232   1.05784    0.050
 5238.00    0.98112   1.06723    0.050
 5239.00    1.01659   1.07544    0.050
 5240.00    1.03719   1.08014    0.050
 5241.00    1.04072   1.08282    0.050
 5242.00    1.04234   1.08335    0.050
 5243.00    1.04202   1.08155    0.049
 5244.00    1.03308   1.07626    0.049
 5245.00    1.01646   1.06872    0.050
 5246.00    1.00404   1.06049    0.050
 5247.00    0.99494   1.05246    0.050
 5248.00    0.98485   1.04407    0.049
 5249.00    0.97408   1.03492    0.049
 5250.00    0.97203   1.03086    0.049
 5251.00    0.97528   1.03029    0.049
 5252.00    0.99706   1.02930    0.049
 5253.00    1.02866   1.03199    0.049
 5254.00    1.02359   1.03621    0.049
 5255.00    1.00169   1.04121    0.048
 5256.00    0.97880   1.04555    0.048
 5257.00    0.95553   1.04494    0.048
 5258.00    0.94325   1.04249    0.048
 5259.00    0.93467   1.03589    0.049
 5260.00    0.95235   1.02278    0.050
 5261.00    0.97747   1.00602    0.050
 5262.00    0.94524   0.98502    0.051
 5263.00    0.89962   0.96139    0.051
 5264.00    0.85920   0.93928    0.051
 5265.00    0.81976   0.91938    0.051
 5266.00    0.84727   0.90306    0.051
 5267.00    0.88448   0.89184    0.051
 5268.00    0.90112   0.88522    0.052
 5269.00    0.91561   0.88631    0.053
 5270.00    0.87107   0.89472    0.052
 5271.00    0.82252   0.90522    0.051
 5272.00    0.81098   0.91871    0.052
 5273.00    0.80068   0.93864    0.052
 5274.00    0.85657   0.95963    0.053
 5275.00    0.91141   0.97866    0.053
 5276.00    0.93031   0.99759    0.052
 5277.00    0.94909   1.01234    0.052
 5278.00    0.96602   1.02514    0.052
 5279.00    0.98183   1.03746    0.052
 5280.00    0.98671   1.04532    0.052
 5281.00    0.99350   1.05149    0.051
 5282.00    1.01381   1.05728    0.051
 5283.00    1.02538   1.06323    0.051
 5284.00    0.98962   1.07199    0.051
 5285.00    0.96547   1.08127    0.050
 5286.00    0.99175   1.09023    0.051
 5287.00    1.01049   1.10061    0.051
 5288.00    1.00224   1.11033    0.052
 5289.00    1.00629   1.11717    0.051
 5290.00    1.04733   1.11988    0.051
 5291.00    1.07313   1.11886    0.050
 5292.00    1.05993   1.11491    0.051
 5293.00    1.04058   1.10789    0.051
 5294.00    1.00773   1.09735    0.050
 5295.00    0.99183   1.08434    0.050
 5296.00    1.00830   1.07290    0.050
 5297.00    1.00642   1.06378    0.050
 5298.00    0.97398   1.05731    0.050
 5299.00    0.96511   1.05422    0.049
 5300.00    0.99066   1.05468    0.049
 5301.00    1.00884   1.06138    0.049
 5302.00    1.01755   1.07183    0.050
 5303.00    1.02706   1.08285    0.050
 5304.00    1.03748   1.09464    0.048
 5305.00    1.03876   1.10682    0.048
 5306.00    1.03090   1.11863    0.048
 5307.00    1.02802   1.12844    0.048
 5308.00    1.02952   1.13529    0.048
 5309.00    1.03468   1.13917    0.048
 5310.00    1.04268   1.14102    0.048
 5311.00    1.03504   1.14152    0.048
 5312.00    1.01675   1.13969    0.047
 5313.00    1.01044   1.13559    0.048
 5314.00    1.01129   1.13053    0.048
 5315.00    1.02560   1.12446    0.048
 5316.00    1.04692   1.11795    0.048
 5317.00    1.03557   1.11135    0.048
 5318.00    1.00946   1.10285    0.048
 5319.00    1.02734   1.09405    0.047
 5320.00    1.06230   1.08465    0.047
 5321.00    1.07021   1.07250    0.048
 5322.00    1.06917   1.05949    0.048
 5323.00    1.04282   1.04562    0.048
 5324.00    1.00945   1.03133    0.048
 5325.00    0.99257   1.01713    0.048
 5326.00    0.97944   1.00419    0.048
 5327.00    0.95376   0.99539    0.048
 5328.00    0.92580   0.99264    0.047
 5329.00    0.91923   0.99377    0.048
 5330.00    0.91566   0.99721    0.050
 5331.00    0.93882   1.00677    0.049
 5332.00    0.96469   1.02021    0.048
 5333.00    0.96323   1.03433    0.048
 5334.00    0.96002   1.04634    0.049
 5335.00    0.99748   1.05511    0.049
 5336.00    1.03605   1.06291    0.049
 5337.00    1.03608   1.06742    0.050
 5338.00    1.03596   1.06870    0.050
 5339.00    1.03155   1.06766    0.050
 5340.00    1.02694   1.06571    0.050
 5341.00    1.01942   1.06507    0.049
 5342.00    1.01260   1.06287    0.049
 5343.00    1.01226   1.06184    0.049
 5344.00    1.01366   1.06386    0.048
 5345.00    1.02695   1.06547    0.048
 5346.00    1.03498   1.06880    0.048
 5347.00    1.01527   1.07240    0.048
 5348.00    1.00245   1.07699    0.048
 5349.00    1.01892   1.08540    0.049
 5350.00    1.03129   1.09375    0.049
 5351.00    1.02929   1.10318    0.048
 5352.00    1.02717   1.11424    0.048
 5353.00    1.02467   1.12544    0.049
 5354.00    1.02458   1.13683    0.049
 5355.00    1.03052   1.14554    0.048
 5356.00    1.05112   1.15217    0.047
 5357.00    1.10342   1.15675    0.048
 5358.00    1.14052   1.15746    0.049
 5359.00    1.14908   1.15484    0.048
 5360.00    1.15354   1.14921    0.048
 5361.00    1.15131   1.14070    0.048
 5362.00    1.13113   1.13034    0.047
 5363.00    1.08516   1.11846    0.047
 5364.00    1.04284   1.10476    0.047
 5365.00    1.00516   1.09218    0.047
 5366.00    0.98601   1.07985    0.047
 5367.00    0.98752   1.06788    0.047
 5368.00    0.99753   1.05843   -2.000
 5369.00    1.01589   1.05126   -2.000
 5370.00    0.99161   1.04862   -2.000
 5371.00    0.93035   1.04938   -2.000
 5372.00    0.90772   1.05340   -2.000
 5373.00    0.91460   1.05998   -2.000
 5374.00    0.93368   1.06898   -2.000
 5375.00    0.96094   1.08036   -2.000
 5376.00    0.99865   1.09042   -2.000
 5377.00    1.04250   1.09919   -2.000
 5378.00    1.06812   1.10566   -2.000
 5379.00    1.08440   1.10955   -2.000
 5380.00    1.06907   1.11190   -2.000
 5381.00    1.03970   1.11255   -2.000
 5382.00    1.04047   1.11131   -2.000
 5383.00    1.05276   1.10881    0.048
 5384.00    1.04411   1.10576    0.048
 5385.00    1.02866   1.10131    0.048
 5386.00    1.04238   1.09636    0.048
 5387.00    1.06402   1.09076    0.048
 5388.00    1.06802   1.08353    0.048
 5389.00    1.06810   1.07564    0.048
 5390.00    1.03289   1.06727    0.048
 5391.00    0.99141   1.05808    0.048
 5392.00    0.97400   1.04974    0.048
 5393.00    0.95986   1.04150    0.048
 5394.00    0.96554   1.03345    0.048
 5395.00    0.97313   1.02796    0.048
 5396.00    0.94561   1.02310    0.048
 5397.00    0.91599   1.01984    0.047
 5398.00    0.90815   1.01742    0.047
 5399.00    0.90107   1.01440    0.047
 5400.00    0.92719   1.01261    0.048
 5401.00    0.95183   1.01019    0.048
 5402.00    0.93839   1.00604    0.047
 5403.00    0.92552   1.00148    0.046
 5404.00    0.92028   0.99760    0.047
 5405.00    0.91614   0.99458    0.047
 5406.00    0.92185   0.99267    0.046
 5407.00    0.92610   0.99231    0.046
 5408.00    0.92071   0.99540    0.046
 5409.00    0.91966   1.00250    0.046
 5410.00    0.94089   1.01246    0.046
 5411.00    0.96189   1.02355    0.046
 5412.00    0.98191   1.03491    0.047
 5413.00    0.99363   1.04787    0.047
 5414.00    0.97684   1.06058    0.046
 5415.00    0.97082   1.07169    0.046
 5416.00    0.99595   1.08048    0.046
 5417.00    1.01937   1.08611    0.047
 5418.00    1.03853   1.09034    0.046
 5419.00    1.04413   1.09317    0.046
 5420.00    1.02083   1.09328    0.046
 5421.00    1.01149   1.09127    0.046
 5422.00    1.02795   1.08853    0.046
 5423.00    1.03646   1.08506    0.046
 5424.00    1.03213   1.08204    0.045
 5425.00    1.02661   1.07806    0.045
 5426.00    1.01944   1.07105    0.045
 5427.00    1.00464   1.06513    0.046
 5428.00    0.98033   1.05948    0.046
 5429.00    0.96871   1.05319    0.046
 5430.00    0.97103   1.04829    0.046
 5431.00    0.96653   1.04174    0.046
 5432.00    0.95539   1.03791    0.046
 5433.00    0.95339   1.03830    0.046
 5434.00    0.95920   1.04022    0.046
 5435.00    0.96438   1.04628    0.046
 5436.00    0.96910   1.05369    0.046
 5437.00    0.99175   1.06291    0.046
 5438.00    1.02625   1.07340    0.046
 5439.00    1.03572   1.08279    0.046
 5440.00    1.03068   1.09125    0.046
 5441.00    1.01815   1.09615    0.046
 5442.00    1.00184   1.09776    0.045
 5443.00    1.01892   1.09534    0.046
 5444.00    1.05059   1.09009    0.046
 5445.00    1.04818   1.08468    0.046
 5446.00    1.03298   1.07798    0.046
 5447.00    0.99923   1.07193    0.046
 5448.00    0.95957   1.06624    0.047
 5449.00    0.96042   1.06143    0.046
 5450.00    0.97204   1.05919    0.046
 5451.00    0.99372   1.05724    0.046
 5452.00    1.01758   1.05516    0.046
 5453.00    0.98452   1.05366    0.046
 5454.00    0.94164   1.05253    0.046
 5455.00    0.95386   1.05195    0.047
 5456.00    0.97330   1.05254    0.047
 5457.00    0.96219   1.05236    0.046
 5458.00    0.94826   1.05326    0.046
 5459.00    0.98528   1.05494    0.046
 5460.00    1.02517   1.05601    0.046
 5461.00    1.01267   1.05828    0.046
 5462.00    0.99918   1.05926    0.045
 5463.00    1.00488   1.05979    0.045
 5464.00    1.00929   1.06057    0.046
 5465.00    0.98360   1.06035    0.045
 5466.00    0.95964   1.06071    0.045
 5467.00    0.95789   1.06027    0.045
 5468.00    0.95860   1.05848    0.045
 5469.00    0.98055   1.05627    0.045
 5470.00    0.99796   1.05214    0.045
 5471.00    0.98624   1.04738    0.045
 5472.00    0.97546   1.04169    0.045
 5473.00    0.96940   1.03419    0.045
 5474.00    0.96749   1.02769    0.045
 5475.00    0.98240   1.02204    0.045
 5476.00    0.98733   1.01809    0.045
 5477.00    0.95865   1.01609    0.045
 5478.00    0.92878   1.01408   -2.000
 5479.00    0.89551   1.01487   -2.000
 5480.00    0.91267   1.01796   -2.000
 5481.00    1.05226   1.02276   -2.000
 5482.00    1.14389   1.02905   -2.000
 5483.00    1.13504   1.03435   -2.000
 5484.00    1.06941   1.03940   -2.000
 5485.00    0.90039   1.04404   -2.000
 5486.00    0.68831   1.04878   -2.000
 5487.00    0.40768   1.05284   -2.000
 5488.00    0.32550   1.05602   -2.000
 5489.00    0.52055   1.05778   -2.000
 5490.00    0.73307   1.05863   -2.000
 5491.00    0.96705   1.05993   -2.000
 5492.00    1.16717   1.06081   -2.000
 5493.00    1.33059   1.06168   -2.000
 5494.00    1.32828   1.06167   -2.000
 5495.00    1.16755   1.06137   -2.000
 5496.00    1.06712   1.06150   -2.000
 5497.00    1.01752   1.06089   -2.000
 5498.00    1.00642   1.05928   -2.000
 5499.00    1.02390   1.05718   -2.000
 5500.00    1.01944   1.05492   -2.000
 5501.00    1.00067   1.05246   -2.000
 5502.00    1.00461   1.04971    0.046
 5503.00    1.02151   1.04585    0.046
 5504.00    1.00254   1.04249    0.046
 5505.00    0.96575   1.03970    0.046
 5506.00    0.96157   1.03684    0.045
 5507.00    0.97141   1.03502    0.045
 5508.00    0.95203   1.03261    0.045
 5509.00    0.92189   1.03027    0.045
 5510.00    0.93441   1.02925    0.045
 5511.00    0.96025   1.02847    0.045
 5512.00    0.95387   1.02937    0.045
 5513.00    0.93910   1.03121    0.045
 5514.00    0.96473   1.03358    0.045
 5515.00    0.99894   1.03857    0.045
 5516.00    0.99800   1.04422    0.045
 5517.00    0.99117   1.05072    0.045
 5518.00    0.98712   1.05754    0.045
 5519.00    0.98343   1.06311    0.045
 5520.00    0.99874   1.06792    0.045
 5521.00    1.01572   1.07084    0.045
 5522.00    0.99821   1.07158    0.045
 5523.00    0.97889   1.07050    0.045
 5524.00    0.98648   1.06720    0.045
 5525.00    0.99456   1.06253    0.045
 5526.00    1.00117   1.05841    0.044
 5527.00    1.00784   1.05464    0.044
 5528.00    1.01581   1.05160    0.044
 5529.00    1.02159   1.04942    0.044
 5530.00    1.00067   1.04801    0.044
 5531.00    0.98375   1.04854    0.044
 5532.00    1.00013   1.04972    0.044
 5533.00    1.01260   1.05239    0.045
 5534.00    1.00077   1.05552    0.044
 5535.00    0.99380   1.05813    0.044
 5536.00    1.01058   1.06149    0.044
 5537.00    1.02175   1.06447    0.045
 5538.00    1.01066   1.06820    0.045
 5539.00    1.00364   1.07150    0.046
 5540.00    1.01007   1.07408    0.046
 5541.00    1.01759   1.07713    0.054
 5542.00    1.02818   1.07960    0.130
 5543.00    1.04193   1.08184   -1.000
 5544.00    1.06323   1.08419   -1.000
 5545.00    1.06725   1.08656   -1.000
 5546.00    1.03561   1.08878   -1.000
 5547.00    1.02266   1.09098   -1.000
 5548.00    1.04321   1.09292   -1.000
 5549.00    1.05489   1.09468    0.231
 5550.00    1.05265   1.09556    0.065
 5551.00    1.05253   1.09535    0.046
 5552.00    1.05532   1.09474    0.045
 5553.00    1.05711   1.09329    0.045
 5554.00    1.05768   1.09077    0.045
 5555.00    1.03501   1.08764    0.045
 5556.00    0.98750   1.08445    0.044
 5557.00    0.97514   1.08087    0.044
 5558.00    0.99588   1.07735    0.045
 5559.00    1.01590   1.07342    0.045
 5560.00    1.03531   1.06933    0.044
 5561.00    1.02791   1.06568    0.044
 5562.00    1.00089   1.06124    0.045
 5563.00    0.97643   1.05714    0.045
 5564.00    0.95360   1.05324    0.044
 5565.00    0.94869   1.04963    0.044
 5566.00    0.95383   1.04668    0.044
 5567.00    0.97569   1.04413    0.044
 5568.00    1.00570   1.04342    0.044
 5569.00    1.00888   1.04256    0.044
 5570.00    1.00070   1.04221    0.044
 5571.00    0.99621   1.04393    0.044
 5572.00    0.99304   1.04584    0.044
 5573.00    0.99727   1.04829    0.044
 5574.00    1.00378   1.05106    0.044
 5575.00    1.01366   1.05385    0.044
 5576.00    1.02440   1.05635    0.044
 5577.00    1.00414   1.05818    0.044
 5578.00    0.97746   1.05909    0.044
 5579.00    1.00107   1.05856    0.045
 5580.00    1.03289   1.05626    0.045
 5581.00    1.03843   1.05197    0.045
 5582.00    1.04076   1.04612    0.045
 5583.00    1.03326   1.03804    0.045
 5584.00    1.02494   1.02868    0.045
 5585.00    0.99230   1.01945    0.044
 5586.00    0.95849   1.01007    0.043
 5587.00    0.94037   1.00265    0.043
 5588.00    0.92251   0.99704    0.043
 5589.00    0.90683   0.99292    0.043
 5590.00    0.89207   0.99169    0.043
 5591.00    0.89559   0.99200    0.044
 5592.00    0.90035   0.99518    0.044
 5593.00    0.91950   1.00036    0.045
 5594.00    0.93435   1.00491    0.046
 5595.00    0.91467   1.00890    0.046
 5596.00    0.90339   1.01223    0.046
 5597.00    0.94287   1.01508    0.046
 5598.00    0.97319   1.01709    0.047
 5599.00    0.95988   1.01896    0.046
 5600.00    0.94688   1.02107    0.046
 5601.00    0.93509   1.02470    0.046
 5602.00    0.92630   1.02892    0.046
 5603.00    0.92721   1.03484    0.045
 5604.00    0.93414   1.04244    0.045
 5605.00    0.95753   1.04990    0.045
 5606.00    0.97746   1.05813    0.045
 5607.00    0.98928   1.06509    0.044
 5608.00    1.00117   1.07117    0.044
 5609.00    1.01320   1.07499    0.044
 5610.00    1.01589   1.07556    0.044
 5611.00    1.00207   1.07307    0.044
 5612.00    0.98826   1.06691    0.044
 5613.00    0.97447   1.06044    0.043
 5614.00    0.97337   1.05401    0.043
 5615.00    0.98949   1.04687    0.043
 5616.00    0.99897   1.04013    0.043
 5617.00    1.00051   1.03393    0.044
 5618.00    0.98734   1.02978    0.044
 5619.00    0.95867   1.02690    0.043
 5620.00    0.94978   1.02546    0.043
 5621.00    0.95928   1.02511    0.043
 5622.00    0.95807   1.02509    0.043
 5623.00    0.94809   1.02631    0.043
 5624.00    0.94628   1.02805    0.043
 5625.00    0.95036   1.03057    0.043
 5626.00    0.95164   1.03410    0.043
 5627.00    0.95114   1.03793    0.044
 5628.00    0.94971   1.04191    0.044
 5629.00    0.94779   1.04601    0.044
 5630.00    0.95988   1.05021    0.044
 5631.00    0.97872   1.05322    0.044
 5632.00    0.98847   1.05452    0.044
 5633.00    0.99445   1.05442    0.044
 5634.00    0.97418   1.05274    0.044
 5635.00    0.94459   1.05007    0.045
 5636.00    0.95854   1.04686    0.045
 5637.00    0.98554   1.04337    0.045
 5638.00    0.97721   1.03944    0.045
 5639.00    0.96008   1.03659    0.045
 5640.00    0.96269   1.03488    0.044
 5641.00    0.96930   1.03379    0.044
 5642.00    0.96113   1.03420    0.044
 5643.00    0.95062   1.03524    0.044
 5644.00    0.98198   1.03718    0.044
 5645.00    1.01826   1.03910    0.044
 5646.00    1.01606   1.04123    0.044
 5647.00    1.01078   1.04373    0.044
 5648.00    0.99315   1.04567    0.044
 5649.00    0.97497   1.04721    0.044
 5650.00    0.98223   1.04763    0.044
 5651.00    0.98949   1.04650    0.044
 5652.00    0.98250   1.04406    0.044
 5653.00    0.97620   1.04111    0.043
 5654.00    0.98276   1.03690    0.043
 5655.00    0.98762   1.03097    0.043
 5656.00    0.97367   1.02555    0.043
 5657.00    0.95669   1.02108    0.043
 5658.00    0.91618   1.01664    0.043
 5659.00    0.88570   1.01287    0.043
 5660.00    0.91417   1.01125    0.043
 5661.00    0.94074   1.01188    0.042
 5662.00    0.95853   1.01304    0.042
 5663.00    0.97426   1.01600    0.042
 5664.00    0.98214   1.02040    0.042
 5665.00    0.98704   1.02509    0.043
 5666.00    0.98249   1.02981    0.043
 5667.00    0.97552   1.03502    0.043
 5668.00    0.96202   1.04078    0.043
 5669.00    0.95601   1.04642    0.044
 5670.00    0.96728   1.05209    0.043
 5671.00    0.97265   1.05712    0.043
 5672.00    0.96625   1.06170    0.044
 5673.00    0.97520   1.06631    0.044
 5674.00    1.01083   1.07025    0.044
 5675.00    1.01799   1.07271    0.044
 5676.00    0.98180   1.07388    0.044
 5677.00    0.97437   1.07376    0.044
 5678.00    1.00541   1.07218    0.045
 5679.00    1.01668   1.06847    0.045
 5680.00    1.00466   1.06444    0.045
 5681.00    0.99265   1.06045    0.045
 5682.00    0.98066   1.05597    0.045
 5683.00    0.96869   1.05151    0.044
 5684.00    0.95675   1.04755    0.043
 5685.00    0.95184   1.04519    0.043
 5686.00    0.95261   1.04357    0.043
 5687.00    0.95655   1.04392    0.043
 5688.00    0.96274   1.04551    0.043
 5689.00    0.95111   1.04829    0.043
 5690.00    0.92838   1.05121    0.043
 5691.00    0.94377   1.05382    0.043
 5692.00    0.97994   1.05674    0.043
 5693.00    1.00168   1.05872    0.043
 5694.00    1.01659   1.06014    0.043
 5695.00    1.02452   1.05894    0.043
 5696.00    1.02960   1.05677    0.044
 5697.00    1.01692   1.05321    0.044
 5698.00    0.99806   1.04772    0.044
 5699.00    0.98818   1.04195    0.044
 5700.00    0.98095   1.03576    0.044
 5701.00    0.98764   1.02977    0.044
 5702.00    0.99772   1.02294    0.043
 5703.00    0.99975   1.01625    0.043
 5704.00    1.00019   1.01037    0.043
 5705.00    0.97872   1.00463    0.043
 5706.00    0.95388   0.99942    0.042
 5707.00    0.94662   0.99632    0.042
 5708.00    0.94137   0.99441    0.042
 5709.00    0.95473   0.99365    0.042
 5710.00    0.96950   0.99542    0.043
 5711.00    0.94698   0.99915    0.043
 5712.00    0.92294   1.00521    0.043
 5713.00    0.94986   1.01275    0.043
 5714.00    0.97616   1.02214    0.043
 5715.00    0.96052   1.03229    0.043
 5716.00    0.94617   1.04223    0.044
 5717.00    0.95416   1.05258    0.043
 5718.00    0.96451   1.06202    0.043
 5719.00    0.99975   1.06994    0.043
 5720.00    1.02887   1.07672    0.044
 5721.00    1.01217   1.08184    0.043
 5722.00    0.99857   1.08525    0.043
 5723.00    1.00271   1.08749    0.043
 5724.00    1.00942   1.08803    0.043
 5725.00    1.02777   1.08779    0.043
 5726.00    1.04005   1.08704    0.043
 5727.00    1.02975   1.08548    0.042
 5728.00    1.01276   1.08334    0.042
 5729.00    0.97494   1.08145    0.042
 5730.00    0.94821   1.08049    0.042
 5731.00    0.95080   1.07943    0.042
 5732.00    0.95712   1.07938    0.042
 5733.00    0.97192   1.07992    0.041
 5734.00    0.98327   1.08032    0.041
 5735.00    0.98786   1.08061    0.041
 5736.00    0.99547   1.08100    0.041
 5737.00    1.00826   1.08188    0.042
 5738.00    1.02234   1.08221    0.042
 5739.00    1.03839   1.08219    0.042
 5740.00    1.04807   1.08184    0.000
 5741.00    1.04936   1.08143    0.000
 5742.00    1.04790   1.08103    0.000
 5743.00    1.04324   1.08030    0.000
 5744.00    1.03813   1.07926    0.000
 5745.00    1.03257   1.07761    0.000
 5746.00    1.02371   1.07614    0.000
 5747.00    1.01186   1.07425    0.000
 5748.00    0.99617   1.07209    0.000
 5749.00    0.97743   1.06953    0.000
 5750.00    0.97302   1.06659    0.000
 5751.00    0.97863   1.06381    0.000
 5752.00    0.99326   1.06137    0.000
 5753.00    1.01343   1.06033    0.000
 5754.00    1.01176   1.05959    0.000
 5755.00    0.99837   1.05924    0.000
 5756.00    0.99084   1.05859    0.000
 5757.00    0.98605   1.05821    0.000
 5758.00    0.98838   1.05803    0.000
 5759.00    0.99356   1.05861    0.000
 5760.00    0.99635   1.05964    0.000
 5761.00    0.99832   1.06111    0.000
 5762.00    1.00886   1.06295    0.000
 5763.00    1.02187   1.06497    0.000
 5764.00    1.02010   1.06764    0.000
 5765.00    1.01481   1.07065    0.000
 5766.00    1.01970   1.07407    0.000
 5767.00    1.02654   1.07708    0.000
 5768.00    1.02689   1.08028    0.000
 5769.00    1.02628   1.08203    0.000
 5770.00    1.02993   1.08269    0.000
 5771.00    1.03404   1.08208    0.000
 5772.00    1.02428   1.08026    0.000
 5773.00    1.01352   1.07758    0.000
 5774.00    1.03735   1.07362    0.000
 5775.00    1.06246   1.06887    0.000
 5776.00    1.05159   1.06256    0.000
 5777.00    1.04040   1.05566    0.000
 5778.00    1.02335   1.04759    0.000
 5779.00    1.00673   1.03941    0.000
 5780.00    0.99721   1.03145    0.000
 5781.00    0.98709   1.02397    0.000
 5782.00    0.97080   1.01740    0.000
 5783.00    0.95626   1.01260    0.000
 5784.00    0.95439   1.01023    0.000
 5785.00    0.95377   1.00942    0.000
 5786.00    0.96005   1.01146    0.000
 5787.00    0.96401   1.01544    0.000
 5788.00    0.95763   1.02065    0.000
 5789.00    0.95723   1.02704    0.000
 5790.00    0.97862   1.03406    0.000
 5791.00    0.99294   1.04148   -2.000
 5792.00    0.98570   1.04826   -2.000
 5793.00    0.97655   1.05442   -2.000
 5794.00    0.96247   1.05994   -2.000
 5795.00    0.95046   1.06441   -2.000
 5796.00    0.94307   1.06924   -2.000
 5797.00    0.95609   1.07345   -2.000
 5798.00    1.00863   1.07678   -2.000
 5799.00    1.03676   1.07967   -2.000
 5800.00    1.02374   1.08160   -2.000
 5801.00    1.01069   1.08259   -2.000
 5802.00    0.99761   1.08307   -2.000
 5803.00    1.00561   1.08339   -2.000
 5804.00    1.04103   1.08333   -2.000
 5805.00    1.06336   1.08269   -2.000
 5806.00    1.07073   1.08196   -2.000
 5807.00    1.06516   1.08106   -2.000
 5808.00    1.04653   1.08020   -2.000
 5809.00    1.02970   1.07955   -2.000
 5810.00    1.01447   1.07924   -2.000
 5811.00    1.01715   1.07896    0.000
 5812.00    1.03389   1.07889    0.000
 5813.00    1.03916   1.07898    0.000
 5814.00    1.03650   1.07933    0.000
 5815.00    1.03144   1.08037    0.000
 5816.00    1.02491   1.08143    0.000
 5817.00    1.02314   1.08313    0.000
 5818.00    1.02388   1.08507    0.000
 5819.00    1.01029   1.08732    0.000
 5820.00    0.99015   1.08981    0.000
 5821.00    0.99856   1.09230    0.000
 5822.00    1.01824   1.09503    0.000
 5823.00    1.03735   1.09703    0.000
 5824.00    1.05627   1.09878    0.000
 5825.00    1.06197   1.09986    0.000
 5826.00    1.06393   1.10048    0.000
 5827.00    1.04978   1.10074    0.000
 5828.00    1.03189   1.10051    0.000
 5829.00    1.02590   1.10007    0.000
 5830.00    1.02215   1.09919    0.000
 5831.00    1.00605   1.09818    0.000
 5832.00    0.98817   1.09689    0.000
 5833.00    1.01049   1.09568    0.000
 5834.00    1.03703   1.09460    0.000
 5835.00    1.02770   1.09359    0.000
 5836.00    1.01594   1.09303    0.000
 5837.00    1.02254   1.09291    0.000
 5838.00    1.02975   1.09303    0.000
 5839.00    1.04261   1.09327    0.000
 5840.00    1.05485   1.09363    0.000
 5841.00    1.04756   1.09360    0.000
 5842.00    1.04088   1.09292    0.000
 5843.00    1.04337   1.09161    0.000
 5844.00    1.04512   1.08952    0.000
 5845.00    1.03961   1.08653    0.000
 5846.00    1.03483   1.08275    0.000
 5847.00    1.03522   1.07809    0.000
 5848.00    1.03239   1.07262    0.000
 5849.00    1.01218   1.06675    0.000
 5850.00    0.99701   1.06055    0.000
 5851.00    1.00366   1.05433    0.000
 5852.00    1.00521   1.04809    0.000
 5853.00    0.98851   1.04220    0.000
 5854.00    0.97151   1.03683    0.000
 5855.00    0.95360   1.03216    0.000
 5856.00    0.94104   1.02878    0.000
 5857.00    0.94210   1.02607    0.000
 5858.00    0.94909   1.02502    0.000
 5859.00    0.96907   1.02502    0.000
 5860.00    0.97723   1.02628    0.000
 5861.00    0.96290   1.02834    0.000
 5862.00    0.95551   1.03105    0.000
 5863.00    0.95968   1.03460    0.000
 5864.00    0.96532   1.03816    0.000
 5865.00    0.97309   1.04237    0.000
 5866.00    0.97546   1.04599    0.000
 5867.00    0.97091   1.04957    0.000
 5868.00    0.96887   1.05259    0.000
 5869.00    0.96966   1.05536    0.000
 5870.00    0.97433   1.05752    0.000
 5871.00    0.98286   1.05895    0.000
 5872.00    0.98483   1.05978    0.000
 5873.00    0.98106   1.05947    0.000
 5874.00    0.97642   1.05846    0.000
 5875.00    0.97111   1.05607    0.000
 5876.00    0.97652   1.05290    0.000
 5877.00    0.98922   1.04859    0.000
 5878.00    0.99558   1.04339    0.000
 5879.00    0.99816   1.03714    0.000
 5880.00    0.99551   1.02960    0.000
 5881.00    0.99014   1.02068    0.000
 5882.00    0.98923   1.00978    0.000
 5883.00    0.99034   0.99674    0.000
 5884.00    0.96589   0.98080    0.000
 5885.00    0.93152   0.96258    0.000
 5886.00    0.90093   0.94314    0.000
 5887.00    0.87159   0.92271    0.000
 5888.00    0.84539   0.90263    0.000
 5889.00    0.82005   0.88385    0.000
 5890.00    0.81484   0.86661    0.000
 5891.00    0.81420   0.85285    0.000
 5892.00    0.79830   0.84371    0.000
 5893.00    0.77964   0.83930    0.000
 5894.00    0.77778   0.84001    0.000
 5895.00    0.77826   0.84601    0.000
 5896.00    0.79037   0.85648    0.000
 5897.00    0.80364   0.87079    0.000
 5898.00    0.82669   0.88792    0.000
 5899.00    0.85036   0.90604    0.000
 5900.00    0.86125   0.92451    0.000
 5901.00    0.87181   0.94313    0.039
 5902.00    0.89883   0.96051    0.039
 5903.00    0.92545   0.97667    0.039
 5904.00    0.94128   0.99078    0.039
 5905.00    0.95614   1.00194    0.039
 5906.00    0.95730   1.01078    0.039
 5907.00    0.95988   1.01742    0.039
 5908.00    0.97570   1.02201    0.039
 5909.00    0.98934   1.02465    0.038
 5910.00    0.98816   1.02619    0.038
 5911.00    0.98539   1.02646    0.038
 5912.00    0.97430   1.02627    0.038
 5913.00    0.96514   1.02567    0.037
 5914.00    0.96419   1.02495    0.037
 5915.00    0.96186   1.02455    0.037
 5916.00    0.95469   1.02431    0.037
 5917.00    0.94957   1.02477    0.037
 5918.00    0.95047   1.02559    0.037
 5919.00    0.95619   1.02712    0.037
 5920.00    0.97400   1.02866    0.037
 5921.00    0.98472   1.03076    0.037
 5922.00    0.98015   1.03258    0.037
 5923.00    0.97585   1.03410    0.037
 5924.00    0.97205   1.03519    0.037
 5925.00    0.96940   1.03550    0.038
 5926.00    0.96863   1.03575    0.038
 5927.00    0.96705   1.03546    0.038
 5928.00    0.96432   1.03499    0.038
 5929.00    0.96800   1.03412    0.038
 5930.00    0.97979   1.03349    0.038
 5931.00    0.98222   1.03307    0.038
 5932.00    0.97424   1.03278    0.038
 5933.00    0.97048   1.03288    0.038
 5934.00    0.97086   1.03310    0.038
 5935.00    0.97924   1.03366    0.038
 5936.00    0.99455   1.03408    0.039
 5937.00    1.00274   1.03486    0.039
 5938.00    1.00549   1.03567    0.038
 5939.00    1.00160   1.03622    0.038
 5940.00    0.99324   1.03669    0.038
 5941.00    0.98007   1.03697    0.038
 5942.00    0.96407   1.03731    0.037
 5943.00    0.96372   1.03723    0.037
 5944.00    0.97138   1.03677    0.038
 5945.00    0.96723   1.03634    0.037
 5946.00    0.95784   1.03568    0.037
 5947.00    0.95865   1.03441    0.037
 5948.00    0.96334   1.03300    0.037
 5949.00    0.96581   1.03183    0.037
 5950.00    0.96757   1.03055    0.037
 5951.00    0.97337   1.02916    0.037
 5952.00    0.98027   1.02800    0.037
 5953.00    0.98424   1.02718    0.037
 5954.00    0.98755   1.02696    0.037
 5955.00    1.00009   1.02732    0.037
 5956.00    1.01425   1.02854    0.037
 5957.00    1.00883   1.03040    0.037
 5958.00    1.00076   1.03254    0.037
 5959.00    0.98797   1.03506    0.037
 5960.00    0.97472   1.03804    0.037
 5961.00    0.97386   1.04105    0.038
 5962.00    0.97374   1.04407    0.038
 5963.00    0.96996   1.04673    0.038
 5964.00    0.96617   1.04944    0.038
 5965.00    0.97628   1.05170    0.038
 5966.00    0.98632   1.05378    0.038
 5967.00    0.99501   1.05528    0.038
 5968.00    1.00323   1.05636    0.038
 5969.00    1.00531   1.05689    0.038
 5970.00    1.00784   1.05666    0.038
 5971.00    1.01440   1.05586    0.038
 5972.00    1.01950   1.05416    0.038
 5973.00    1.01502   1.05214    0.038
 5974.00    1.00980   1.04935    0.037
 5975.00    1.00069   1.04632    0.037
 5976.00    0.99209   1.04285    0.037
 5977.00    0.98564   1.03939    0.036
 5978.00    0.97722   1.03588    0.036
 5979.00    0.96200   1.03254    0.036
 5980.00    0.95109   1.02974    0.036
 5981.00    0.95262   1.02739    0.036
 5982.00    0.95691   1.02550    0.036
 5983.00    0.96800   1.02421    0.036
 5984.00    0.97520   1.02366    0.036
 5985.00    0.97411   1.02373    0.036
 5986.00    0.97340   1.02441    0.036
 5987.00    0.97338   1.02566    0.036
 5988.00    0.97645   1.02746    0.036
 5989.00    0.98448   1.02951    0.037
 5990.00    0.99158   1.03161    0.037
 5991.00    0.99739   1.03358    0.037
 5992.00    0.99821   1.03534    0.037
 5993.00    0.99281   1.03639    0.038
 5994.00    0.98661   1.03693    0.038
 5995.00    0.97950   1.03677    0.038
 5996.00    0.97173   1.03603    0.038
 5997.00    0.96330   1.03469    0.038
 5998.00    0.96628   1.03285    0.038
 5999.00    0.97901   1.03107    0.038
 6000.00    0.98505   1.02895    0.037
 6001.00    0.98606   1.02669    0.037
 6002.00    0.98122   1.02436    0.037
 6003.00    0.97252   1.02199    0.037
 6004.00    0.96286   1.01993    0.037
 6005.00    0.95264   1.01813    0.037
 6006.00    0.94810   1.01648    0.036
 6007.00    0.94641   1.01502    0.036
 6008.00    0.94782   1.01372    0.036
 6009.00    0.95058   1.01274    0.036
 6010.00    0.94826   1.01207    0.036
 6011.00    0.94404   1.01151    0.036
 6012.00    0.94976   1.01087    0.036
 6013.00    0.95865   1.01034    0.036
 6014.00    0.97281   1.00968    0.036
 6015.00    0.98838   1.00894    0.036
 6016.00    0.98828   1.00852    0.036
 6017.00    0.98479   1.00791    0.037
 6018.00    0.96658   1.00782    0.037
 6019.00    0.94583   1.00783    0.037
 6020.00    0.93190   1.00867    0.037
 6021.00    0.91885   1.01015    0.037
 6022.00    0.92414   1.01227    0.037
 6023.00    0.93111   1.01525    0.037
 6024.00    0.93634   1.01875    0.036
 6025.00    0.94148   1.02297    0.036
 6026.00    0.95505   1.02727    0.037
 6027.00    0.96873   1.03213    0.037
 6028.00    0.97574   1.03673    0.038
 6029.00    0.98270   1.04138    0.038
 6030.00    0.98846   1.04558    0.037
 6031.00    0.99380   1.04940    0.037
 6032.00    0.99382   1.05272    0.037
 6033.00    0.99350   1.05533    0.037
 6034.00    0.99018   1.05753    0.037
 6035.00    0.98810   1.05900    0.037
 6036.00    0.99384   1.06018    0.037
 6037.00    0.99800   1.06085    0.036
 6038.00    0.99421   1.06141    0.036
 6039.00    0.99089   1.06179    0.036
 6040.00    0.98945   1.06223    0.036
 6041.00    0.98746   1.06277    0.036
 6042.00    0.98360   1.06341    0.035
 6043.00    0.98278   1.06431    0.035
 6044.00    0.99060   1.06513    0.036
 6045.00    0.99741   1.06610    0.036
 6046.00    1.00175   1.06669    0.036
 6047.00    1.00611   1.06708    0.036
 6048.00    1.01050   1.06692    0.036
 6049.00    1.00894   1.06621    0.036
 6050.00    0.99654   1.06505    0.036
 6051.00    0.99012   1.06317    0.036
 6052.00    0.99321   1.06112    0.036
 6053.00    0.99477   1.05855    0.036
 6054.00    0.99421   1.05607    0.037
 6055.00    0.99573   1.05348    0.037
 6056.00    0.99978   1.05109    0.037
 6057.00    0.99661   1.04894    0.037
 6058.00    0.98562   1.04685    0.037
 6059.00    0.97555   1.04532    0.037
 6060.00    0.96637   1.04387    0.037
 6061.00    0.97052   1.04303    0.037
 6062.00    0.98587   1.04249    0.038
 6063.00    0.99063   1.04261    0.037
 6064.00    0.98755   1.04337    0.036
 6065.00    0.98295   1.04484    0.036
 6066.00    0.97737   1.04722    0.036
 6067.00    0.97585   1.05007    0.036
 6068.00    0.97665   1.05353    0.036
 6069.00    0.98390   1.05692    0.036
 6070.00    0.99435   1.06022    0.036
 6071.00    1.00087   1.06271    0.036
 6072.00    1.00569   1.06435    0.036
 6073.00    1.02108   1.06486    0.036
 6074.00    1.04034   1.06398    0.036
 6075.00    1.04707   1.06199    0.036
 6076.00    1.04989   1.05878    0.036
 6077.00    1.04472   1.05476    0.036
 6078.00    1.03748   1.05011    0.036
 6079.00    1.03183   1.04542    0.036
 6080.00    1.02650   1.04080    0.036
 6081.00    1.01120   1.03667    0.036
 6082.00    0.99422   1.03300    0.036
 6083.00    0.98377   1.02996    0.036
 6084.00    0.97414   1.02761    0.036
 6085.00    0.97256   1.02584    0.037
 6086.00    0.97169   1.02463    0.037
 6087.00    0.97464   1.02380    0.037
 6088.00    0.97779   1.02354    0.036
 6089.00    0.98021   1.02342    0.036
 6090.00    0.98242   1.02357    0.036
 6091.00    0.97078   1.02395    0.036
 6092.00    0.95951   1.02464    0.036
 6093.00    0.95608   1.02530    0.036
 6094.00    0.95365   1.02589    0.036
 6095.00    0.96326   1.02612    0.036
 6096.00    0.97137   1.02593    0.036
 6097.00    0.96703   1.02548    0.036
 6098.00    0.96476   1.02428    0.036
 6099.00    0.97528   1.02284    0.036
 6100.00    0.98319   1.02091    0.036
 6101.00    0.97833   1.01915    0.036
 6102.00    0.97481   1.01758    0.036
 6103.00    0.97656   1.01680    0.036
 6104.00    0.97818   1.01663    0.036
 6105.00    0.97937   1.01743    0.035
 6106.00    0.98076   1.01920    0.035
 6107.00    0.98269   1.02162    0.035
 6108.00    0.98482   1.02458    0.035
 6109.00    0.98742   1.02746    0.036
 6110.00    0.98863   1.03028    0.036
 6111.00    0.98700   1.03250    0.035
 6112.00    0.98298   1.03416    0.036
 6113.00    0.97468   1.03474    0.036
 6114.00    0.97085   1.03428    0.036
 6115.00    0.97404   1.03265    0.036
 6116.00    0.97839   1.03016    0.036
 6117.00    0.98435   1.02692    0.036
 6118.00    0.98192   1.02316    0.036
 6119.00    0.96935   1.01915    0.036
 6120.00    0.95810   1.01530    0.036
 6121.00    0.94825   1.01202    0.036
 6122.00    0.94062   1.00944    0.037
 6123.00    0.93509   1.00789    0.037
 6124.00    0.93936   1.00718    0.036
 6125.00    0.95176   1.00736    0.036
 6126.00    0.96370   1.00807    0.036
 6127.00    0.97530   1.00898    0.036
 6128.00    0.98137   1.00963    0.035
 6129.00    0.98390   1.00973    0.035
 6130.00    0.97436   1.00890    0.035
 6131.00    0.95806   1.00718    0.035
 6132.00    0.94437   1.00446    0.035
 6133.00    0.93195   1.00089    0.035
 6134.00    0.91758   0.99681    0.036
 6135.00    0.90240   0.99278    0.035
 6136.00    0.89239   0.98942    0.036
 6137.00    0.88425   0.98713    0.036
 6138.00    0.89096   0.98643    0.036
 6139.00    0.90219   0.98721    0.036
 6140.00    0.90827   0.98971    0.036
 6141.00    0.91304   0.99328    0.036
 6142.00    0.91940   0.99785    0.036
 6143.00    0.92609   1.00253    0.036
 6144.00    0.94168   1.00715    0.036
 6145.00    0.95871   1.01097    0.036
 6146.00    0.98031   1.01397    0.036
 6147.00    1.00246   1.01579    0.036
 6148.00    1.00999   1.01652    0.036
 6149.00    1.01630   1.01620    0.036
 6150.00    0.99839   1.01483    0.036
 6151.00    0.97933   1.01258    0.036
 6152.00    0.97735   1.00934    0.036
 6153.00    0.97533   1.00538    0.036
 6154.00    0.95682   1.00035    0.036
 6155.00    0.93847   0.99447    0.036
 6156.00    0.92306   0.98751    0.036
 6157.00    0.90792   0.97981    0.035
 6158.00    0.89584   0.97144    0.036
 6159.00    0.88482   0.96283    0.036
 6160.00    0.88228   0.95440    0.036
 6161.00    0.87931   0.94665    0.036
 6162.00    0.87380   0.94019    0.035
 6163.00    0.86882   0.93521    0.035
 6164.00    0.86633   0.93202    0.035
 6165.00    0.86608   0.93062    0.035
 6166.00    0.87456   0.93095    0.035
 6167.00    0.88426   0.93280    0.035
 6168.00    0.89787   0.93574    0.035
 6169.00    0.91115   0.93971    0.035
 6170.00    0.92354   0.94425    0.035
 6171.00    0.92854   0.94924    0.036
 6172.00    0.91626   0.95447    0.036
 6173.00    0.90698   0.95987    0.036
 6174.00    0.90379   0.96524    0.035
 6175.00    0.90333   0.97038    0.035
 6176.00    0.90770   0.97525    0.036
 6177.00    0.90973   0.97958    0.036
 6178.00    0.90817   0.98341    0.035
 6179.00    0.90235   0.98640    0.035
 6180.00    0.89076   0.98860    0.035
 6181.00    0.88458   0.98978    0.035
 6182.00    0.88484   0.98985    0.035
 6183.00    0.89080   0.98880    0.035
 6184.00    0.90274   0.98669    0.035
 6185.00    0.90522   0.98370    0.035
 6186.00    0.89890   0.98000    0.035
 6187.00    0.89758   0.97601    0.036
 6188.00    0.90033   0.97210    0.036
 6189.00    0.89856   0.96864    0.036
 6190.00    0.89355   0.96601    0.036
 6191.00    0.88658   0.96441    0.036
 6192.00    0.87836   0.96409    0.035
 6193.00    0.87296   0.96486    0.035
 6194.00    0.86910   0.96667    0.036
 6195.00    0.83866   0.96922    0.037
 6196.00    0.79544   0.97221   -2.000
 6197.00    0.67705   0.97545   -2.000
 6198.00    0.52748   0.97862   -2.000
 6199.00    0.44496   0.98170   -2.000
 6200.00    0.38620   0.98447   -2.000
 6201.00    0.52377   0.98701   -2.000
 6202.00    0.72009   0.98912   -2.000
 6203.00    0.93000   0.99084   -2.000
 6204.00    1.14329   0.99193   -2.000
 6205.00    1.18133   0.99229   -2.000
 6206.00    1.18410   0.99169   -2.000
 6207.00    1.09759   0.99002   -2.000
 6208.00    0.99700   0.98715    0.037
 6209.00    0.96733   0.98313    0.037
 6210.00    0.94598   0.97804    0.037
 6211.00    0.94550   0.97217    0.036
 6212.00    0.94667   0.96583    0.036
 6213.00    0.92700   0.95942    0.035
 6214.00    0.90642   0.95333    0.035
 6215.00    0.90212   0.94789    0.035
 6216.00    0.89801   0.94343    0.035
 6217.00    0.89418   0.94004    0.035
 6218.00    0.89019   0.93783    0.035
 6219.00    0.88318   0.93662    0.035
 6220.00    0.87725   0.93632    0.035
 6221.00    0.88317   0.93658    0.035
 6222.00    0.88932   0.93717    0.035
 6223.00    0.89723   0.93779    0.035
 6224.00    0.90334   0.93818    0.035
 6225.00    0.89890   0.93825    0.035
 6226.00    0.89348   0.93781    0.036
 6227.00    0.88351   0.93713    0.036
 6228.00    0.87785   0.93611    0.036
 6229.00    0.88849   0.93523    0.036
 6230.00    0.89907   0.93448    0.036
 6231.00    0.90941   0.93419    0.036
 6232.00    0.91807   0.93431    0.036
 6233.00    0.92219   0.93483    0.035
 6234.00    0.92277   0.93562    0.035
 6235.00    0.91517   0.93627    0.035
 6236.00    0.90938   0.93672    0.035
 6237.00    0.90720   0.93655    0.035
 6238.00    0.90465   0.93583    0.035
 6239.00    0.90145   0.93443    0.035
 6240.00    0.89631   0.93262    0.035
 6241.00    0.88820   0.93057    0.035
 6242.00    0.88702   0.92859    0.035
 6243.00    0.89507   0.92690    0.034
 6244.00    0.90297   0.92567    0.034
 6245.00    0.91069   0.92485    0.035
 6246.00    0.91553   0.92444    0.035
 6247.00    0.91738   0.92408    0.035
 6248.00    0.91824   0.92365    0.035
 6249.00    0.91819   0.92278    0.035
 6250.00    0.91415   0.92140    0.035
 6251.00    0.90691   0.91940    0.035
 6252.00    0.90506   0.91688    0.035
 6253.00    0.90702   0.91418    0.035
 6254.00    0.90149   0.91145    0.035
 6255.00    0.89129   0.90937    0.035
 6256.00    0.87492   0.90796    0.035
 6257.00    0.85518   0.90792    0.035
 6258.00    0.83957   0.90900    0.036
 6259.00    0.82590   0.91157    0.037
 6260.00    0.78639   0.91520    0.038
 6261.00    0.73634   0.91981    0.040
 6262.00    0.73320   0.92497    0.041
 6263.00    0.74639   0.93030    0.043
 6264.00    0.82083   0.93557    0.043
 6265.00    0.91324   0.94038    0.042
 6266.00    0.97583   0.94475    0.040
 6267.00    1.03119   0.94842    0.038
 6268.00    1.01805   0.95160    0.037
 6269.00    0.99148   0.95416    0.036
 6270.00    0.96734   0.95632    0.036
 6271.00    0.94357   0.95803    0.035
 6272.00    0.93100   0.95942    0.035
 6273.00    0.91970   0.96045    0.035
 6274.00    0.92750   0.96118    0.035
 6275.00    0.93673   0.96162    0.035
 6276.00    0.93653   0.96181    0.035
 6277.00    0.93596   0.96189    0.034
 6278.00    0.93008   0.96190    0.035
 6279.00    0.92418   0.96211    0.035
 6280.00    0.91842   0.96253    0.000
 6281.00    0.91391   0.96340    0.000
 6282.00    0.93056   0.96464    0.000
 6283.00    0.94557   0.96632    0.000
 6284.00    0.94345   0.96827    0.000
 6285.00    0.94045   0.97033    0.000
 6286.00    0.93092   0.97229    0.000
 6287.00    0.92574   0.97384    0.000
 6288.00    0.94536   0.97487    0.000
 6289.00    0.96403   0.97509    0.000
 6290.00    0.97840   0.97452    0.000
 6291.00    0.98766   0.97306    0.000
 6292.00    0.97794   0.97088    0.000
 6293.00    0.96623   0.96803    0.000
 6294.00    0.94836   0.96481    0.000
 6295.00    0.93122   0.96135    0.000
 6296.00    0.91604   0.95800    0.000
 6297.00    0.90582   0.95490    0.000
 6298.00    0.90684   0.95236    0.000
 6299.00    0.90719   0.95046    0.000
 6300.00    0.90623   0.94943    0.000
 6301.00    0.90581   0.94922    0.000
 6302.00    0.90634   0.94989    0.000
 6303.00    0.91260   0.95124    0.000
 6304.00    0.92746   0.95317    0.000
 6305.00    0.94343   0.95531    0.000
 6306.00    0.96085   0.95745    0.000
 6307.00    0.97295   0.95921    0.000
 6308.00    0.97890   0.96038    0.000
 6309.00    0.96916   0.96073    0.000
 6310.00    0.94341   0.96017    0.000
 6311.00    0.92787   0.95876    0.000
 6312.00    0.92155   0.95659    0.000
 6313.00    0.92190   0.95397    0.000
 6314.00    0.92753   0.95115    0.000
 6315.00    0.93186   0.94852    0.000
 6316.00    0.93528   0.94639    0.000
 6317.00    0.93042   0.94509    0.000
 6318.00    0.92050   0.94474    0.000
 6319.00    0.91639   0.94552    0.000
 6320.00    0.91540   0.94730    0.000
 6321.00    0.91515   0.95006    0.034
 6322.00    0.91524   0.95347    0.035
 6323.00    0.91173   0.95735    0.035
 6324.00    0.90677   0.96130    0.035
 6325.00    0.90722   0.96507    0.035
 6326.00    0.90952   0.96838    0.035
 6327.00    0.92005   0.97099    0.035
 6328.00    0.93294   0.97278    0.036
 6329.00    0.95076   0.97363    0.036
 6330.00    0.96974   0.97358    0.035
 6331.00    0.98015   0.97268    0.035
 6332.00    0.98891   0.97107    0.035
 6333.00    0.98855   0.96896    0.035
 6334.00    0.98684   0.96653    0.035
 6335.00    0.96377   0.96409    0.035
 6336.00    0.93838   0.96179    0.034
 6337.00    0.92381   0.95985    0.034
 6338.00    0.91001   0.95840    0.034
 6339.00    0.91418   0.95744    0.034
 6340.00    0.91901   0.95705    0.034
 6341.00    0.93936   0.95713    0.034
 6342.00    0.95939   0.95768    0.035
 6343.00    0.96659   0.95857    0.035
 6344.00    0.97317   0.95975    0.035
 6345.00    0.96974   0.96110    0.035
 6346.00    0.96612   0.96250    0.035
 6347.00    0.96057   0.96382    0.035
 6348.00    0.95596   0.96482    0.035
 6349.00    0.95806   0.96537    0.035
 6350.00    0.96088   0.96520    0.035
 6351.00    0.96765   0.96421    0.036
 6352.00    0.97078   0.96223    0.036
 6353.00    0.95779   0.95931    0.036
 6354.00    0.94555   0.95548    0.035
 6355.00    0.93603   0.95094    0.035
 6356.00    0.92705   0.94596    0.035
 6357.00    0.91973   0.94088    0.035
 6358.00    0.91541   0.93609    0.035
 6359.00    0.91885   0.93195    0.035
 6360.00    0.91892   0.92884    0.035
 6361.00    0.91150   0.92702    0.035
 6362.00    0.90259   0.92670    0.035
 6363.00    0.89081   0.92793    0.035
 6364.00    0.88665   0.93066    0.035
 6365.00    0.89536   0.93473    0.035
 6366.00    0.90682   0.93984    0.035
 6367.00    0.92233   0.94569    0.035
 6368.00    0.93201   0.95189    0.035
 6369.00    0.93413   0.95809    0.035
 6370.00    0.94291   0.96396    0.035
 6371.00    0.95929   0.96924    0.035
 6372.00    0.97346   0.97375    0.035
 6373.00    0.98538   0.97735    0.035
 6374.00    0.98776   0.98003    0.035
 6375.00    0.98165   0.98181    0.035
 6376.00    0.97944   0.98279    0.035
 6377.00    0.98029   0.98313    0.036
 6378.00    0.97645   0.98298    0.036
 6379.00    0.96938   0.98255    0.036
 6380.00    0.96506   0.98198    0.036
 6381.00    0.96241   0.98142    0.036
 6382.00    0.96293   0.98093    0.035
 6383.00    0.96513   0.98055    0.035
 6384.00    0.96827   0.98022    0.035
 6385.00    0.97185   0.97986    0.035
 6386.00    0.96893   0.97935    0.034
 6387.00    0.96346   0.97860    0.034
 6388.00    0.95977   0.97752    0.034
 6389.00    0.95666   0.97610    0.035
 6390.00    0.96032   0.97435    0.034
 6391.00    0.96588   0.97239    0.034
 6392.00    0.96529   0.97033    0.034
 6393.00    0.96327   0.96834    0.035
 6394.00    0.95112   0.96656    0.035
 6395.00    0.93709   0.96510    0.035
 6396.00    0.94373   0.96409    0.036
 6397.00    0.95334   0.96353    0.036
 6398.00    0.95472   0.96348    0.036
 6399.00    0.95525   0.96384    0.036
 6400.00    0.95212   0.96458    0.036
 6401.00    0.94873   0.96555    0.037
 6402.00    0.96284   0.96664    0.037
 6403.00    0.97753   0.96768    0.037
 6404.00    0.97485   0.96856    0.036
 6405.00    0.97205   0.96914    0.036
 6406.00    0.96515   0.96938    0.036
 6407.00    0.95920   0.96926    0.036
 6408.00    0.96752   0.96884    0.036
 6409.00    0.97428   0.96819    0.036
 6410.00    0.96604   0.96743    0.035
 6411.00    0.95957   0.96664    0.035
 6412.00    0.96549   0.96593    0.034
 6413.00    0.97168   0.96533    0.034
 6414.00    0.97936   0.96487    0.034
 6415.00    0.98547   0.96456    0.035
 6416.00    0.98488   0.96443    0.034
 6417.00    0.98055   0.96449    0.034
 6418.00    0.96296   0.96480    0.035
 6419.00    0.94609   0.96537    0.035
 6420.00    0.93141   0.96630    0.034
 6421.00    0.92297   0.96749    0.034
 6422.00    0.93040   0.96897    0.035
 6423.00    0.93836   0.97054    0.035
 6424.00    0.94747   0.97213    0.035
 6425.00    0.95154   0.97349    0.036
 6426.00    0.94606   0.97453    0.036
 6427.00    0.94298   0.97510    0.036
 6428.00    0.94391   0.97521    0.037
 6429.00    0.94751   0.97490    0.037
 6430.00    0.95499   0.97431    0.037
 6431.00    0.96276   0.97360    0.037
 6432.00    0.97090   0.97293    0.037
 6433.00    0.97426   0.97248    0.037
 6434.00    0.97223   0.97233    0.036
 6435.00    0.96415   0.97259    0.036
 6436.00    0.95006   0.97324    0.036
 6437.00    0.94179   0.97429    0.035
 6438.00    0.93862   0.97563    0.035
 6439.00    0.93694   0.97720    0.035
 6440.00    0.93642   0.97878    0.035
 6441.00    0.94117   0.98022    0.035
 6442.00    0.94950   0.98125    0.034
 6443.00    0.95869   0.98171    0.035
 6444.00    0.96839   0.98139    0.035
 6445.00    0.96562   0.98023    0.035
 6446.00    0.95639   0.97828    0.035
 6447.00    0.94650   0.97568    0.036
 6448.00    0.93632   0.97275    0.036
 6449.00    0.93339   0.96979    0.036
 6450.00    0.93327   0.96719    0.037
 6451.00    0.93155   0.96517    0.037
 6452.00    0.92931   0.96402    0.036
 6453.00    0.93752   0.96369    0.036
 6454.00    0.94861   0.96421    0.036
 6455.00    0.96301   0.96529    0.036
 6456.00    0.97816   0.96678    0.037
 6457.00    0.97123   0.96835    0.036
 6458.00    0.96029   0.96983    0.036
 6459.00    0.94531   0.97105    0.035
 6460.00    0.92977   0.97199    0.035
 6461.00    0.93178   0.97266    0.035
 6462.00    0.93554   0.97316    0.035
 6463.00    0.93045   0.97361    0.035
 6464.00    0.92479   0.97407    0.035
 6465.00    0.93538   0.97469    0.035
 6466.00    0.94646   0.97538    0.035
 6467.00    0.96724   0.97622    0.035
 6468.00    0.98719   0.97703    0.035
 6469.00    0.98399   0.97784    0.035
 6470.00    0.98014   0.97845    0.035
 6471.00    0.96695   0.97891    0.035
 6472.00    0.95477   0.97907    0.035
 6473.00    0.95183   0.97898    0.036
 6474.00    0.94968   0.97859    0.036
 6475.00    0.95281   0.97789    0.036
 6476.00    0.95685   0.97690    0.037
 6477.00    0.96563   0.97560    0.037
 6478.00    0.97313   0.97406    0.037
 6479.00    0.97523   0.97228    0.037
 6480.00    0.97893   0.97038    0.037
 6481.00    0.98821   0.96835    0.036
 6482.00    0.99249   0.96626    0.036
 6483.00    0.98212   0.96406    0.035
 6484.00    0.97301   0.96164    0.035
 6485.00    0.96705   0.95887    0.036
 6486.00    0.96294   0.95551    0.036
 6487.00    0.96279   0.95136    0.035
 6488.00    0.96316   0.94623    0.035
 6489.00    0.96452   0.94009    0.035
 6490.00    0.96089   0.93300    0.035
 6491.00    0.94911   0.92522    0.035
 6492.00    0.93869   0.91721    0.035
 6493.00    0.93021   0.90949    0.035
 6494.00    0.92721   0.90271    0.035
 6495.00    0.93112   0.89744    0.035
 6496.00    0.92399   0.89417    0.035
 6497.00    0.90460   0.89320    0.036
 6498.00    0.88819   0.89458    0.036
 6499.00    0.87469   0.89824    0.036
 6500.00    0.86515   0.90374    0.036
 6501.00    0.85901   0.91070    0.036
 6502.00    0.86218   0.91844    0.036
 6503.00    0.87241   0.92652    0.036
 6504.00    0.88867   0.93432    0.036
 6505.00    0.90897   0.94152    0.037
 6506.00    0.93060   0.94777    0.037
 6507.00    0.95301   0.95293    0.037
 6508.00    0.95934   0.95695    0.037
 6509.00    0.95745   0.95984    0.037
 6510.00    0.95959   0.96171    0.036
 6511.00    0.96352   0.96269    0.036
 6512.00    0.95825   0.96296    0.035
 6513.00    0.94949   0.96268    0.035
 6514.00    0.94934   0.96208    0.035
 6515.00    0.95197   0.96130    0.035
 6516.00    0.95731   0.96058    0.035
 6517.00    0.96338   0.96001    0.035
 6518.00    0.95352   0.95973    0.035
 6519.00    0.94012   0.95978    0.035
 6520.00    0.94770   0.96011    0.035
 6521.00    0.95899   0.96073    0.036
 6522.00    0.96998   0.96145    0.036
 6523.00    0.98093   0.96223    0.036
 6524.00    0.98555   0.96289    0.038
 6525.00    0.98956   0.96343    0.040
 6526.00    0.99829   0.96373    0.041
 6527.00    1.00730   0.96386    0.041
 6528.00    1.00330   0.96383    0.000
 6529.00    0.99883   0.96374    0.000
 6530.00    0.97600   0.96366    0.000
 6531.00    0.95452   0.96366    0.000
 6532.00    0.96692   0.96381    0.000
 6533.00    0.97857   0.96408    0.000
 6534.00    0.98021   0.96447    0.000
 6535.00    0.98191   0.96486    0.000
 6536.00    0.98407   0.96516    0.000
 6537.00    0.98663   0.96522    0.000
 6538.00    0.99189   0.96487    0.000
 6539.00    0.99568   0.96404    0.000
 6540.00    0.99196   0.96258    0.000
 6541.00    0.98788   0.96054    0.000
 6542.00    0.98227   0.95784    0.000
 6543.00    0.97905   0.95468    0.000
 6544.00    0.98400   0.95106    0.000
 6545.00    0.98967   0.94718    0.000
 6546.00    0.99743   0.94310    0.000
 6547.00    1.00158   0.93889    0.000
 6548.00    0.99683   0.93457    0.000
 6549.00    0.99549   0.93005    0.000
 6550.00    1.00136   0.92527    0.000
 6551.00    0.99636   0.92002    0.000
 6552.00    0.97134   0.91421    0.000
 6553.00    0.95308   0.90763    0.000
 6554.00    0.94570   0.90025    0.000
 6555.00    0.94338   0.89196    0.000
 6556.00    0.94821   0.88296    0.000
 6557.00    0.94594   0.87335    0.000
 6558.00    0.93485   0.86363    0.000
 6559.00    0.92765   0.85414    0.000
 6560.00    0.92473   0.84562    0.000
 6561.00    0.91350   0.83855    0.000
 6562.00    0.89424   0.83357    0.000
 6563.00    0.87666   0.83106    0.000
 6564.00    0.86052   0.83116    0.000
 6565.00    0.87017   0.83393    0.000
 6566.00    0.89917   0.83887    0.000
 6567.00    0.91099   0.84570    0.000
 6568.00    0.91149   0.85357    0.000
 6569.00    0.91086   0.86208    0.000
 6570.00    0.90958   0.87052    0.000
 6571.00    0.91132   0.87861    0.000
 6572.00    0.91457   0.88604    0.000
 6573.00    0.92438   0.89278    0.000
 6574.00    0.93705   0.89882    0.000
 6575.00    0.93346   0.90428    0.000
 6576.00    0.92381   0.90922    0.000
 6577.00    0.91520   0.91380    0.000
 6578.00    0.90693   0.91796    0.000
 6579.00    0.92205   0.92183    0.000
 6580.00    0.94336   0.92525    0.000
 6581.00    0.97540   0.92834    0.000
 6582.00    1.00976   0.93087    0.000
 6583.00    1.02958   0.93297    0.000
 6584.00    1.04689   0.93444    0.000
 6585.00    1.04331   0.93537    0.000
 6586.00    1.03702   0.93562    0.000
 6587.00    1.02545   0.93527    0.000
 6588.00    1.01340   0.93430    0.000
 6589.00    0.98255   0.93287    0.000
 6590.00    0.95066   0.93105    0.000
 6591.00    0.94333   0.92911    0.000
 6592.00    0.93644   0.92721    0.000
 6593.00    0.92259   0.92567    0.000
 6594.00    0.90907   0.92455    0.000
 6595.00    0.90301   0.92410    0.000
 6596.00    0.89763   0.92425    0.000
 6597.00    0.90091   0.92504    0.000
 6598.00    0.90498   0.92623    0.000
 6599.00    0.91592   0.92769    0.000
 6600.00    0.92664   0.92913    0.000
 6601.00    0.93599   0.93039    0.000
 6602.00    0.94743   0.93130    0.000
 6603.00    0.96929   0.93179    0.000
 6604.00    0.98153   0.93187    0.000
 6605.00    0.95487   0.93168    0.000
 6606.00    0.93522   0.93132    0.000
 6607.00    0.93902   0.93109    0.000
 6608.00    0.94135   0.93104    0.000
 6609.00    0.93948   0.93148    0.038
 6610.00    0.93730   0.93234    0.037
 6611.00    0.93435   0.93377    0.037
 6612.00    0.93542   0.93558    0.037
 6613.00    0.94487   0.93773    0.037
 6614.00    0.95186   0.93999    0.037
 6615.00    0.95437   0.94215    0.037
 6616.00    0.95353   0.94410    0.037
 6617.00    0.94740   0.94554    0.037
 6618.00    0.94583   0.94652    0.037
 6619.00    0.95061   0.94676    0.037
 6620.00    0.95839   0.94645    0.038
 6621.00    0.96984   0.94543    0.038
 6622.00    0.98207   0.94391    0.038
 6623.00    0.99516   0.94190    0.038
 6624.00    0.99259   0.93956    0.038
 6625.00    0.97510   0.93700    0.038
 6626.00    0.97332   0.93428    0.039
 6627.00    0.98472   0.93161    0.039
 6628.00    0.97348   0.92893    0.039
 6629.00    0.94550   0.92652    0.039
 6630.00    0.94115   0.92425    0.039
 6631.00    0.95216   0.92238    0.039
 6632.00    0.94277   0.92081    0.039
 6633.00    0.92178   0.91971    0.039
 6634.00    0.90846   0.91902    0.039
 6635.00    0.89893   0.91877    0.038
 6636.00    0.89437   0.91890    0.038
 6637.00    0.89193   0.91930    0.037
 6638.00    0.90387   0.91993    0.038
 6639.00    0.92108   0.92062    0.038
 6640.00    0.93667   0.92137    0.038
 6641.00    0.95175   0.92204    0.038
 6642.00    0.95304   0.92267    0.038
 6643.00    0.95076   0.92321    0.038
 6644.00    0.95331   0.92370    0.038
 6645.00    0.95688   0.92417    0.038
 6646.00    0.94881   0.92463    0.038
 6647.00    0.93880   0.92508    0.039
 6648.00    0.91865   0.92552    0.039
 6649.00    0.89722   0.92589    0.038
 6650.00    0.90643   0.92620    0.039
 6651.00    0.91830   0.92631    0.040
 6652.00    0.91057   0.92628    0.040
 6653.00    0.90183   0.92591    0.040
 6654.00    0.89533   0.92533    0.040
 6655.00    0.88910   0.92432    0.040
 6656.00    0.89942   0.92307    0.039
 6657.00    0.90934   0.92141    0.039
 6658.00    0.91068   0.91955    0.039
 6659.00    0.91290   0.91747    0.039
 6660.00    0.92565   0.91532    0.039
 6661.00    0.93650   0.91327    0.039
 6662.00    0.93164   0.91138    0.039
 6663.00    0.92576   0.90994    0.038
 6664.00    0.91358   0.90888    0.038
 6665.00    0.90651   0.90847    0.038
 6666.00    0.92432   0.90852    0.038
 6667.00    0.93724   0.90913    0.038
 6668.00    0.93086   0.91004    0.039
 6669.00    0.92712   0.91118    0.039
 6670.00    0.93204   0.91226    0.039
 6671.00    0.93456   0.91317    0.040
 6672.00    0.93042   0.91371    0.040
 6673.00    0.92795   0.91382    0.040
 6674.00    0.92942   0.91350    0.040
 6675.00    0.92367   0.91280    0.040
 6676.00    0.90306   0.91191    0.040
 6677.00    0.89169   0.91095    0.040
 6678.00    0.89679   0.91019    0.040
 6679.00    0.90230   0.90969    0.040
 6680.00    0.90844   0.90967    0.040
 6681.00    0.91280   0.91006    0.039
 6682.00    0.91471   0.91091    0.039
 6683.00    0.91513   0.91210    0.039
 6684.00    0.91375   0.91345    0.039
 6685.00    0.90947   0.91489    0.039
 6686.00    0.90209   0.91613    0.039
 6687.00    0.90232   0.91719    0.039
 6688.00    0.90969   0.91780    0.039
 6689.00    0.92072   0.91806    0.040
 6690.00    0.93477   0.91782    0.040
 6691.00    0.93624   0.91722    0.040
 6692.00    0.92854   0.91624    0.040
 6693.00    0.92395   0.91501    0.041
 6694.00    0.92134   0.91366    0.041
 6695.00    0.92839   0.91222    0.041
 6696.00    0.94084   0.91092    0.000
 6697.00    0.94035   0.90969    0.000
 6698.00    0.93355   0.90876    0.000
 6699.00    0.92503   0.90797    0.000
 6700.00    0.91579   0.90746    0.000
 6701.00    0.91884   0.90705    0.000
 6702.00    0.92632   0.90677    0.000
 6703.00    0.92380   0.90649    0.000
 6704.00    0.91822   0.90612    0.000
 6705.00    0.92316   0.90560    0.000
 6706.00    0.93075   0.90483    0.000
 6707.00    0.92141   0.90378    0.000
 6708.00    0.90859   0.90239    0.000
 6709.00    0.90979   0.90068    0.000
 6710.00    0.91326   0.89865    0.000
 6711.00    0.92604   0.89639    0.000
 6712.00    0.93995   0.89398    0.000
 6713.00    0.94114   0.89163    0.000
 6714.00    0.94126   0.88937    0.000
 6715.00    0.94554   0.88756    0.000
 6716.00    0.95001   0.88611    0.000
 6717.00    0.95409   0.88538    0.000
 6718.00    0.95689   0.88520    0.000
 6719.00    0.88873   0.88575    0.000
 6720.00    0.82465   0.88685    0.000
 6721.00    0.84031   0.88842    0.000
 6722.00    0.85697   0.89038    0.000
 6723.00    0.88521   0.89243    0.000
 6724.00    0.91005   0.89463    0.000
 6725.00    0.90787   0.89662    0.000
 6726.00    0.90436   0.89856    0.000
 6727.00    0.89288   0.90011    0.000
 6728.00    0.88969   0.90150    0.000
 6729.00    0.92576   0.90243    0.000
 6730.00    0.95742   0.90313    0.000
 6731.00    0.97205   0.90340    0.000
 6732.00    0.97573   0.90338    0.000
 6733.00    0.94416   0.90299    0.000
 6734.00    0.92086   0.90227    0.000
 6735.00    0.92010   0.90131    0.000
 6736.00    0.92933   0.90005    0.000
 6737.00    0.96192   0.89870    0.000
 6738.00    0.97467   0.89713    0.000
 6739.00    0.94736   0.89562    0.000
 6740.00    0.92385   0.89400    0.000
 6741.00    0.90701   0.89255    0.000
 6742.00    0.90260   0.89109    0.000
 6743.00    0.91732   0.88982    0.000
 6744.00    0.92693   0.88866    0.000
 6745.00    0.92962   0.88766    0.000
 6746.00    0.91820   0.88692    0.000
 6747.00    0.88999   0.88629    0.000
 6748.00    0.87636   0.88610    0.000
 6749.00    0.87804   0.88604    0.000
 6750.00    0.87476   0.88655    0.000
 6751.00    0.86689   0.88726    0.000
 6752.00    0.85068   0.88856    0.000
 6753.00    0.82764   0.89012    0.043
 6754.00    0.81363   0.89204    0.044
 6755.00    0.80610   0.89426    0.044
 6756.00    0.82787   0.89645    0.044
 6757.00    0.86810   0.89879    0.045
 6758.00    0.90237   0.90070    0.046
 6759.00    0.93337   0.90252    0.047
 6760.00    0.96751   0.90367    0.048
 6761.00    1.00316   0.90449    0.049
 6762.00    1.03687   0.90463    0.050
 6763.00    1.06978   0.90438    0.051
 6764.00    1.09691   0.90366    0.052
 6765.00    1.12199   0.90269    0.053
 6766.00    1.10252   0.90165    0.053
 6767.00    1.06974   0.90063    0.051
 6768.00    1.06012   0.89991    0.051
 6769.00    1.05622   0.89946    0.051
 6770.00    1.02619   0.89952    0.050
 6771.00    0.99092   0.89995    0.048
 6772.00    0.94417   0.90080    0.047
 6773.00    0.89563   0.90190    0.046
 6774.00    0.89497   0.90311    0.045
 6775.00    0.89989   0.90426    0.045
 6776.00    0.92724   0.90513    0.045
 6777.00    0.95636   0.90558    0.045
 6778.00    0.96444   0.90551    0.045
 6779.00    0.97161   0.90487    0.045
 6780.00    0.94099   0.90375    0.046
 6781.00    0.91140   0.90209    0.046
 6782.00    0.94773   0.90026    0.046
 6783.00    0.98304   0.89818    0.047
 6784.00    0.99974   0.89633    0.047
 6785.00    1.01210   0.89454    0.048
 6786.00    0.97685   0.89323    0.047
 6787.00    0.94618   0.89218    0.047
 6788.00    0.95071   0.89162    0.048
 6789.00    0.95588   0.89137    0.049
 6790.00    0.96476   0.89142    0.049
 6791.00    0.96894   0.89169    0.049
 6792.00    0.95137   0.89204    0.049
 6793.00    0.93962   0.89255    0.048
 6794.00    0.94992   0.89302    0.048
 6795.00    0.95604   0.89360    0.047
 6796.00    0.94893   0.89413    0.047
 6797.00    0.94968   0.89474    0.046
 6798.00    0.97146   0.89529    0.045
 6799.00    0.98453   0.89586    0.045
 6800.00    0.97760   0.89637    0.046
 6801.00    0.95877   0.89684    0.046
 6802.00    0.91627   0.89717    0.046
 6803.00    0.89760   0.89743    0.045
 6804.00    0.92020   0.89751    0.045
 6805.00    0.93592   0.89751    0.045
 6806.00    0.94117   0.89736    0.045
 6807.00    0.93834   0.89717    0.045
 6808.00    0.92474   0.89689    0.045
 6809.00    0.92324   0.89664    0.046
 6810.00    0.93596   0.89642    0.048
 6811.00    0.93114   0.89628    0.049
 6812.00    0.90816   0.89627    0.049
 6813.00    0.90050   0.89637    0.048
 6814.00    0.90683   0.89664    0.048
 6815.00    0.91591   0.89709    0.048
 6816.00    0.92721   0.89761    0.048
 6817.00    0.94424   0.89834    0.048
 6818.00    0.96532   0.89905    0.047
 6819.00    0.96631   0.89991    0.046
 6820.00    0.95481   0.90066    0.046
 6821.00    0.95644   0.90149    0.045
 6822.00    0.96520   0.90209    0.045
 6823.00    0.96157   0.90264    0.044
 6824.00    0.95210   0.90296    0.044
 6825.00    0.93924   0.90318    0.044
 6826.00    0.92499   0.90321    0.045
 6827.00    0.90771   0.90304    0.045
 6828.00    0.88938   0.90275    0.045
 6829.00    0.90019   0.90221    0.046
 6830.00    0.91954   0.90165    0.048
 6831.00    0.95005   0.90076    0.048
 6832.00    0.98326   0.89982    0.048
 6833.00    0.98963   0.89843    0.048
 6834.00    0.99075   0.89697    0.048
 6835.00    0.98490   0.89510    0.048
 6836.00    0.97798   0.89314    0.048
 6837.00    0.96689   0.89096    0.049
 6838.00    0.95533   0.88885    0.049
 6839.00    0.94633   0.88690    0.050
 6840.00    0.93751   0.88520    0.050
 6841.00    0.90459   0.88398    0.048
 6842.00    0.87070   0.88318    0.047
 6843.00    0.90007   0.88304    0.046
 6844.00    0.92924   0.88332    0.045
 6845.00    0.93301   0.88401    0.045
 6846.00    0.93627   0.88493    0.044
 6847.00    0.93091   0.88592    0.045
 6848.00    0.92769   0.88681    0.045
 6849.00    0.94684   0.88737    0.045
 6850.00    0.96252   0.88758    0.045
 6851.00    0.95233   0.88727    0.046
 6852.00    0.94182   0.88655    0.046
 6853.00    0.92955   0.88544    0.046
 6854.00    0.91791   0.88403    0.046
 6855.00    0.90917   0.88246    0.046
 6856.00    0.90185   0.88087    0.047
 6857.00    0.89976   0.87940    0.047
 6858.00    0.89271   0.87815    0.048
 6859.00    0.87028   0.87718    0.048
 6860.00    0.86325   0.87658    0.047
 6861.00    0.89671   0.87619    0.047
 6862.00    0.91623   0.87608    0.047
 6863.00    0.90425   0.87609    0.046
 6864.00    0.90528   0.87627    0.046
 6865.00    0.93177   0.87644    0.046
 6866.00    0.94538   0.87667    0.046
 6867.00    0.93701   0.87685    0.046
 6868.00    0.93698   0.87697    0.047
 6869.00    0.94940   0.87714    0.047
 6870.00    0.95049   0.87733    0.047
 6871.00    0.93669   0.87763    0.046
 6872.00    0.93059   0.87797    0.046
 6873.00    0.93338   0.87843    0.045
 6874.00    0.92877   0.87894    0.046
 6875.00    0.91662   0.87955    0.046
 6876.00    0.92450   0.88020    0.046
 6877.00    0.95043   0.88099    0.047
 6878.00    0.93043   0.88168    0.046
 6879.00    0.87402   0.88247    0.046
 6880.00    0.86984   0.88320    0.047
 6881.00    0.90212   0.88412    0.047
 6882.00    0.91250   0.88504    0.048
 6883.00    0.90949   0.88625    0.048
 6884.00    0.92393   0.88757    0.048
 6885.00    0.94769   0.88911    0.047
 6886.00    0.95102   0.89081    0.047
 6887.00    0.94488   0.89258    0.046
 6888.00    0.92945   0.89447    0.046
 6889.00    0.91031   0.89619    0.045
 6890.00    0.92443   0.89795    0.045
 6891.00    0.94988   0.89939    0.046
 6892.00    0.94678   0.90075    0.045
 6893.00    0.93551   0.90167    0.045
 6894.00    0.92099   0.90249    0.046
 6895.00    0.90572   0.90303    0.048
 6896.00    0.69434   0.90342    0.044
 6897.00    0.44557   0.90376    0.040
 6898.00    0.68382   0.90402    0.071
 6899.00    0.99403   0.90441    0.799
 6900.00    1.02988   0.90465   -1.000
 6901.00    1.03614   0.90519   -1.000
 6902.00    1.00382   0.90550   -1.000
 6903.00    0.96877   0.90604   -1.000
 6904.00    1.00576   0.90627   -1.000
 6905.00    1.04534   0.90663   -1.000
 6906.00    1.00347   0.90657   -1.000
 6907.00    0.96222   0.90641   -1.000
 6908.00    0.95149   0.90599   -1.000
 6909.00    0.94332   0.90529   -1.000
 6910.00    0.97569   0.90451   -1.000
 6911.00    1.00368   0.90331   -1.000
 6912.00    0.98782   0.90235   -1.000
 6913.00    0.97338   0.90106   -1.000
 6914.00    0.96913   0.90016   -1.000
 6915.00    0.97122   0.89905   -1.000
 6916.00    1.00827   0.89827   -1.000
 6917.00    1.03360   0.89752   -1.000
 6918.00    1.00724   0.89693   -1.000
 6919.00    0.98791   0.89649   -1.000
 6920.00    0.99406   0.89599   -1.000
 6921.00    0.99895   0.89562   -1.000
 6922.00    1.00006   0.89509   -1.000
 6923.00    0.99617   0.89472   -1.000
 6924.00    0.97932   0.89412   -1.000
 6925.00    0.97809   0.89359   -1.000
 6926.00    1.01158   0.89317   -1.000
 6927.00    1.02031   0.89280   -1.000
 6928.00    0.98134   0.89260   -1.000
 6929.00    0.96595   0.89252   -1.000
 6930.00    0.99017   0.89260   -1.000
 6931.00    0.99056   0.89289   -1.000
 6932.00    0.95586   0.89325   -1.000
 6933.00    0.95685   0.89392   -1.000
 6934.00    1.00405   0.89448   -1.000
 6935.00    1.00843   0.89512   -1.000
 6936.00    0.96395   0.89550   -1.000
 6937.00    0.92866   0.89577   -1.000
 6938.00    0.90260   0.89593   -1.000
 6939.00    0.89615   0.89583   -1.000
 6940.00    0.90709   0.89559   -1.000
 6941.00    0.93661   0.89507   -1.000
 6942.00    0.98065   0.89460   -1.000
 6943.00    0.99063   0.89374   -1.000
 6944.00    0.97719   0.89290   -1.000
 6945.00    0.98077   0.89204   -1.000
 6946.00    0.99462   0.89126   -1.000
 6947.00    0.99335   0.89063   -1.000
 6948.00    0.98414   0.89014   -1.000
 6949.00    0.97378   0.88986   -1.000
 6950.00    0.96290   0.88970   -1.000
 6951.00    0.97457   0.88990   -1.000
 6952.00    0.99511   0.89024   -1.000
 6953.00    0.99208   0.89099   -1.000
 6954.00    0.98117   0.89191   -1.000
 6955.00    0.98229   0.89306   -1.000
 6956.00    0.98679   0.89427   -1.000
 6957.00    0.96075   0.89570   -1.000
 6958.00    0.92765   0.89710   -1.000
 6959.00    0.93069   0.89866   -1.000
 6960.00    0.94044   0.90034   -1.000
 6961.00    0.94842   0.90180   -1.000
 6962.00    0.95616   0.90325   -1.000
 6963.00    0.98289   0.90432   -1.000
 6964.00    1.01160   0.90535   -1.000
 6965.00    1.00236   0.90592   -1.000
 6966.00    0.99059   0.90626   -1.000
 6967.00    0.97397   0.90613   -1.000
 6968.00    0.95721   0.90559   -1.000
 6969.00    0.97370   0.90462   -1.000
 6970.00    0.99069   0.90298   -1.000
 6971.00    1.02282   0.90100   -1.000
 6972.00    1.05232   0.89864   -1.000
 6973.00    1.04284   0.89606   -1.000
 6974.00    1.03339   0.89338   -1.000
 6975.00    1.02425   0.89082   -1.000
 6976.00    1.01294   0.88847   -1.000
 6977.00    0.98649   0.88655   -1.000
 6978.00    0.96659   0.88538   -1.000
 6979.00    0.98191   0.88488   -1.000
 6980.00    0.98850   0.88528   -1.000
 6981.00    0.95747   0.88629   -1.000
 6982.00    0.93518   0.88793   -1.000
 6983.00    0.94390   0.89011   -1.000
 6984.00    0.94955   0.89257   -1.000
 6985.00    0.94599   0.89522   -1.000
 6986.00    0.95184   0.89768   -1.000
 6987.00    0.98154   0.90002   -1.000
 6988.00    1.00726   0.90191   -1.000
 6989.00    1.02428   0.90326   -1.000
 6990.00    1.02411   0.90415   -1.000
 6991.00    0.99137   0.90453   -1.000
 6992.00    0.97769   0.90452   -1.000
 6993.00    0.99554   0.90414   -1.000
 6994.00    0.99318   0.90351   -1.000
 6995.00    0.96146   0.90260   -1.000
 6996.00    0.95067   0.90148   -1.000
 6997.00    0.96658   0.90020   -1.000
 6998.00    0.98332   0.89874   -1.000
 6999.00    1.00100   0.89730   -1.000
 7000.00    1.00062   0.89573   -1.000
 7001.00    0.98233   0.89440   -1.000
 7002.00    0.97433   0.89308   -1.000
 7003.00    0.97533   0.89203   -1.000
 7004.00    0.98091   0.89111   -1.000
 7005.00    0.98999   0.89031   -1.000
 7006.00    0.98518   0.88981   -1.000
 7007.00    0.97094   0.88930   -1.000
 7008.00    0.95567   0.88888   -1.000
 7009.00    0.93979   0.88831   -1.000
 7010.00    0.92702   0.88774   -1.000
 7011.00    0.91585   0.88710   -1.000
 7012.00    0.91308   0.88655   -1.000
 7013.00    0.91409   0.88599   -1.000
 7014.00    0.93778   0.88547   -1.000
 7015.00    0.97022   0.88494   -1.000
 7016.00    0.96547   0.88451   -1.000
 7017.00    0.94852   0.88421   -1.000
 7018.00    0.94774   0.88418   -1.000
 7019.00    0.95140   0.88433   -1.000
 7020.00    0.93480   0.88470   -1.000
 7021.00    0.91363   0.88514   -1.000
 7022.00    0.95738   0.88580   -1.000
 7023.00    1.01286   0.88673   -1.000
 7024.00    1.00082   0.88772   -1.000
 7025.00    0.97942   0.88877   -1.000
 7026.00    0.95911   0.88977   -1.000
 7027.00    0.93891   0.89076   -1.000
 7028.00    0.95303   0.89174   -1.000
 7029.00    0.96930   0.89283   -1.000
 7030.00    0.95818   0.89393   -1.000
 7031.00    0.94633   0.89523   -1.000
 7032.00    0.94766   0.89635   -1.000
 7033.00    0.95016   0.89767   -1.000
 7034.00    0.98478   0.89903   -1.000
 7035.00    1.01582   0.90055   -1.000
 7036.00    0.99652   0.90214   -1.000
 7037.00    0.98330   0.90384   -1.000
 7038.00    1.02616   0.90579   -1.000
 7039.00    1.05411   0.90777   -1.000
 7040.00    0.98163   0.91009   -1.000
 7041.00    0.92035   0.91234   -1.000
 7042.00    0.91758   0.91460   -1.000
 7043.00    0.91892   0.91635   -1.000
 7044.00    0.93754   0.91774   -1.000
 7045.00    0.96530   0.91876   -1.000
 7046.00    1.02480   0.91877   -1.000
 7047.00    1.05642   0.91800   -1.000
 7048.00    1.00642   0.91615   -1.000
 7049.00    0.97635   0.91344   -1.000
 7050.00    0.99606   0.90985   -2.000
 7051.00    1.01889   0.90566   -2.000
 7052.00    1.04842   0.90101   -2.000
 7053.00    1.06546   0.89584   -2.000
 7054.00    1.05917   0.89054   -2.000
 7055.00    1.06525   0.88516   -2.000
 7056.00    1.09150   0.88004   -2.000
 7057.00    1.09663   0.87518   -2.000
 7058.00    1.07154   0.87070   -2.000
 7059.00    1.05982   0.86695   -2.000
 7060.00    1.06490   0.86359   -2.000
 7061.00    1.07346   0.86090   -2.000
 7062.00    1.08586   0.85860   -2.000
 7063.00    1.08411   0.85683   -2.000
 7064.00    1.06851   0.85545   -2.000
 7065.00    1.05883   0.85460   -2.000
 7066.00    1.05425   0.85419   -2.000
 7067.00    1.04342   0.85439   -2.000
 7068.00    1.02784   0.85498   -2.000
 7069.00    1.01525   0.85596   -2.000
 7070.00    1.00465   0.85735   -2.000
 7071.00    1.03691   0.85876   -2.000
 7072.00    1.09424   0.86049   -2.000
 7073.00    1.09259   0.86210   -2.000
 7074.00    1.06089   0.86372   -2.000
 7075.00    1.03440   0.86519   -2.000
 7076.00    1.01022   0.86600   -2.000
 7077.00    1.02942   0.86604   -2.000
 7078.00    1.06507   0.86513   -2.000
 7079.00    1.06159   0.86355   -2.000
 7080.00    1.04551   0.86120   -2.000
 7081.00    1.05123   0.85813   -2.000
 7082.00    1.06282   0.85433   -2.000
 7083.00    0.99426   0.85014   -2.000
 7084.00    0.90800   0.84555   -2.000
 7085.00    0.96587   0.84081   -2.000
 7086.00    1.04908   0.83633   -2.000
 7087.00    0.62830   0.83180   -2.000
 7088.00    0.14000   0.82784   -2.000
 7089.00    0.64217   0.82427   -2.000
 7090.00    1.23846   0.82148   -2.000
 7091.00    1.24972   0.81970   -2.000
 7092.00    1.22666   0.81836   -2.000
 7093.00    1.24930   0.81784   -2.000
 7094.00    1.27299   0.81757   -2.000
 7095.00    1.28512   0.81814   -2.000
 7096.00    1.29586   0.81860   -2.000
 7097.00    1.27180   0.81990   -2.000
 7098.00    1.24894   0.82094   -2.000
 7099.00    1.24199   0.82234   -2.000
 7100.00    1.23396   0.82358   -2.000
 7101.00    1.21641   0.82448   -2.000
 7102.00    1.20150   0.82554   -2.000
 7103.00    1.20384   0.82610   -2.000
 7104.00    1.20130   0.82668   -2.000
 7105.00    1.17387   0.82666   -2.000
 7106.00    1.15073   0.82661   -2.000
 7107.00    1.14521   0.82631   -2.000
 7108.00    1.14760   0.82610   -2.000
 7109.00    1.17695   0.82574   -2.000
 7110.00    1.19664   0.82570   -2.000
 7111.00    1.18861   0.82533   -2.000
 7112.00    1.19320   0.82511   -2.000
 7113.00    1.22878   0.82496   -2.000
 7114.00    1.23771   0.82496   -2.000
 7115.00    1.19027   0.82500   -2.000
 7116.00    1.16504   0.82461   -2.000
 7117.00    1.18062   0.82459   -2.000
 7118.00    1.20218   0.82433   -2.000
 7119.00    1.23332   0.82386   -2.000
 7120.00    1.25382   0.82293   -2.000
 7121.00    1.25931   0.82170   -2.000
 7122.00    1.27106   0.82051   -2.000
 7123.00    1.29057   0.81868   -2.000
 7124.00    1.29239   0.81699   -2.000
 7125.00    1.27488   0.81484   -2.000
 7126.00    1.27537   0.81329   -2.000
 7127.00    1.29323   0.81156   -2.000
 7128.00    1.31931   0.81030   -2.000
 7129.00    1.35240   0.80958   -2.000
 7130.00    1.30327   0.80877   -2.000
 7131.00    1.19258   0.80878   -2.000
 7132.00    1.16750   0.80891   -2.000
 7133.00    1.19877   0.80981   -2.000
 7134.00    1.17713   0.81069   -2.000
 7135.00    1.12503   0.81210   -2.000
 7136.00    1.15062   0.81332   -2.000
 7137.00    1.21520   0.81496   -2.000
 7138.00    1.25180   0.81648   -2.000
 7139.00    1.27626   0.81756   -2.000
 7140.00    1.24868   0.81861   -2.000
 7141.00    1.20172   0.81889   -2.000
 7142.00    1.17440   0.81904   -2.000
 7143.00    1.15328   0.81900   -2.000
 7144.00    1.16771   0.81871   -2.000
 7145.00    1.19151   0.81843   -2.000
 7146.00    1.19691   0.81844   -2.000
 7147.00    1.19835   0.81857   -2.000
 7148.00    1.19960   0.81858   -2.000
 7149.00    1.20083   0.81893   -2.000
 7150.00    1.21051   0.81943   -2.000
 7151.00    1.22128   0.82050   -2.000
 7152.00    1.21432   0.82150   -2.000
 7153.00    1.20574   0.82249   -2.000
 7154.00    1.20279   0.82358   -2.000
 7155.00    1.20015   0.82491   -2.000
 7156.00    1.20727   0.82591   -2.000
 7157.00    1.21428   0.82648   -2.000
 7158.00    1.19287   0.82682   -2.000
 7159.00    1.17428   0.82637   -2.000
 7160.00    1.21976   0.82617   -2.000
 7161.00    1.26344   0.82559   -2.000
 7162.00    1.28453   0.82568   -2.000
 7163.00    1.30227   0.82533   -2.000
 7164.00    1.29153   0.82511   -2.000
 7165.00    1.28031   0.82530   -2.000
 7166.00    1.26599   0.82587   -2.000
 7167.00    1.26252   0.82691   -2.000
 7168.00    1.31291   0.82793   -2.000
 7169.00    1.34089   0.82907   -2.000
 7170.00    1.27862   0.83004   -2.000
 7171.00    1.23149   0.83154   -2.000
 7172.00    1.23492   0.83286   -2.000
 7173.00    1.22481   0.83369   -2.000
 7174.00    1.17649   0.83383   -2.000
 7175.00    1.15607   0.83345   -2.000
 7176.00    1.20295   0.83284   -2.000
 7177.00    1.23296   0.83219   -2.000
 7178.00    1.22782   0.83108   -2.000
 7179.00    1.23503   0.82970   -2.000
 7180.00    1.26458   0.82816   -2.000
 7181.00    1.27902   0.82632   -2.000
 7182.00    1.26955   0.82464   -2.000
 7183.00    1.23991   0.82309   -2.000
 7184.00    1.18226   0.82152   -2.000
 7185.00    1.15676   0.81997   -2.000
 7186.00    1.17057   0.81864   -2.000
 7187.00    1.16929   0.81768   -2.000
 7188.00    1.15174   0.81704   -2.000
 7189.00    1.18370   0.81664   -2.000
 7190.00    1.26274   0.81608   -2.000
 7191.00    1.26311   0.81582   -2.000
 7192.00    1.19755   0.81597   -2.000
 7193.00    1.18020   0.81628   -2.000
 7194.00    1.19844   0.81731   -2.000
 7195.00    1.20512   0.81818   -2.000
 7196.00    1.20429   0.81924   -2.000
 7197.00    1.16477   0.82025   -2.000
 7198.00    1.10330   0.82109   -2.000
 7199.00    1.11380   0.82203   -2.000
 7200.00    1.15986   0.82268   -2.000
 7201.00    1.20939   0.82290   -2.000
 7202.00    1.26042   0.82292   -2.000
 7203.00    1.21256   0.82275   -2.000
 7204.00    1.12851   0.82281   -2.000
 7205.00    1.09247   0.82275   -2.000
 7206.00    1.07129   0.82257   -2.000
 7207.00    1.11210   0.82260   -2.000
 7208.00    1.16891   0.82254   -2.000
 7209.00    1.12297   0.82300   -2.000
 7210.00    1.05542   0.82318   -2.000
 7211.00    1.06404   0.82391   -2.000
 7212.00    1.08531   0.82480   -2.000
 7213.00    1.09389   0.82601   -2.000
 7214.00    1.10087   0.82792   -2.000
 7215.00    1.09828   0.82932   -2.000
 7216.00    1.09485   0.83110   -2.000
 7217.00    1.11972   0.83240   -2.000
 7218.00    1.14602   0.83379   -2.000
