###################################################################
## OUTPUT of StarlightChains_v04.for    [Cid@UFSC - 01/Apr/2007] ##
###################################################################

## Some input info
KUG0210-078._27_34.txt                   [arq_obs]
Base.CB07.vall.4m                        [arq_base]
Masks.EmLines.NEW.gm                     [arq_masks]
StCv04.C11.config                        [arq_config]
   66                                    [N_base]
    0                                    [N_YAV_components = # of components with extra extinction!]
    0                                    [i_FitPowerLaw (1/0 = Yes/No)]
-9.99                                    [alpha_PowerLaw]
CCM                                      [red_law_option]
 1.458241                                [q_norm = A(l_norm)/A(V)]

## (Re)Sampling Parameters
 3741.00                                 [l_ini (A)]
 7218.00                                 [l_fin (A)]
    1.00                                 [dl    (A)]     (OBS: dl_cushion =    50.00 A)

## Normalization info
 4020.00                                 [l_norm (A) - for base]
 4010.00                                 [llow_norm (A) - window for f_obs]
 4060.00                                 [lupp_norm (A) - window for f_obs]
5.180506E-17                             [fobs_norm (in input units)]

## S/N
 3691.00                                 [llow_SN (A) - window for S/N]
 7268.00                                 [lupp_SN (A) - window for S/N]
   5.353                                 [S/N in S/N window]
   3.466                                 [S/N in norm. window]
   0.133                                 [S/N_err in S/N window]
   0.086                                 [S/N_err in norm. window]
  1.0000                                 [fscale_chi2]

## etc...
    -2007354                             [idum_orig]
  2432                                   [NOl_eff]
  2088                                   [Nl_eff]
   344    NSIGMA                         [Ntot_cliped & clip_method]
 15656340                                [Nglobal_steps]
   7                                     [N_chains]
  44                                     [NEX0s_base = N_base in EX0s-fits]
 0   0   1      344   2.0   4.276E+04    [Clip-Bug, RC-Crash & Burn-In warning-flags, n_censored_weights, wei_nsig_threshold & wei_limit]
   113    111.979    111.302      0.677  [idt_all, wdt_TotTime, wdt_UsrTime & wdt_SysTime (sec)]

## Synthesis Results - Best model ##

 4.31320E-04                             [chi2/Nl_eff]
     6.95189                             [adev (%)]

   130.00000                             [sum-of-x (%)]
 6.16426E-15                             [Flux_tot (units of input spectrum!)]
 5.36196E-13                             [Mini_tot (???)]
 5.36102E-13                             [Mcor_tot (???)]

-430.29                                  [v0_min  (km/s)]
 305.52                                  [vd_min  (km/s)]
 3.3629                                  [AV_min  (mag)]
 0.0000                                  [YAV_min (mag)]

# j     x_j(%)      Mini_j(%)     Mcor_j(%)     age_j(yr)     Z_j      (L/M)_j    YAV?  Mstars   component_j        a/Fe...       SSP_chi2r SSP_adev(%)   SSP_AV   SSP_x(%)
  1     79.7774     6.4488E+01    6.4499E+01    1.000000E+06  0.00400  1.094E-02    0   1.0000   age020_m42            0.0000     2.6809E-04     4.9893   2.9306   157.1688
  2      0.0000     0.0000E+00    0.0000E+00    3.160000E+06  0.00400  4.007E-02    0   0.9999   age045_m42            0.0000     2.7849E-04     4.3990   2.2957   161.3831
  3      0.0000     0.0000E+00    0.0000E+00    5.010000E+06  0.00400  2.539E-02    0   0.9488   age055_m42            0.0000     2.6583E-04     4.5342   2.5707   160.6395
  4      0.0000     0.0000E+00    0.0000E+00    6.610000E+06  0.00400  2.620E-02    0   0.9220   age061_m42            0.0000     2.7648E-04     4.2754   2.2217   161.8332
  5      0.0000     0.0000E+00    0.0000E+00    1.000000E+07  0.00400  1.322E-02    0   0.8862   age070_m42            0.0000     2.8018E-04     3.9855   1.9239   167.0075
  6      0.0000     0.0000E+00    0.0000E+00    1.445000E+07  0.00400  7.883E-03    0   0.8571   age078_m42            0.0000     2.7080E-04     4.0162   2.2299   164.2367
  7      0.0000     0.0000E+00    0.0000E+00    2.512000E+07  0.00400  5.251E-03    0   0.8174   age090_m42            0.0000     2.8415E-04     4.0550   1.8005   167.5855
  8      0.0000     0.0000E+00    0.0000E+00    4.000000E+07  0.00400  3.649E-03    0   0.7851   age104_m42            0.0000     2.8878E-04     4.0712   1.5899   167.6298
  9      0.0000     0.0000E+00    0.0000E+00    5.500000E+07  0.00400  3.098E-03    0   0.7629   age110_m42            0.0000     2.9059E-04     4.0311   1.7641   165.8583
 10      0.0000     0.0000E+00    0.0000E+00    1.015200E+08  0.00400  2.228E-03    0   0.7207   age116_m42            0.0000     2.9033E-04     4.0211   1.7969   165.1100
 11      0.0000     0.0000E+00    0.0000E+00    2.861200E+08  0.00400  1.093E-03    0   0.6648   age125_m42            0.0000     3.0927E-04     4.6421   1.2396   168.9777
 12      0.0000     0.0000E+00    0.0000E+00    5.088000E+08  0.00400  6.597E-04    0   0.6365   age130_m42            0.0000     3.1127E-04     4.4189   1.2542   168.2937
 13      0.0000     0.0000E+00    0.0000E+00    1.434000E+09  0.00400  2.132E-04    0   0.5798   age139_m42            0.0000     3.0968E-04     4.1839   0.3204   168.6533
 14      0.0000     0.0000E+00    0.0000E+00    4.250000E+09  0.00400  5.895E-05    0   0.5377   age158_m42            0.0000     2.8177E-04     4.0630  -0.1488   163.7937
 15      0.0000     0.0000E+00    0.0000E+00    7.500000E+09  0.00400  3.510E-05    0   0.5212   age171_m42            0.0000     2.9097E-04     4.3013  -0.3311   162.0503
 16      0.0000     0.0000E+00    0.0000E+00    1.300000E+10  0.00400  2.005E-05    0   0.5034   age193_m42            0.0000     3.0392E-04     4.6168  -0.4915   160.6403
 17      0.0000     0.0000E+00    0.0000E+00    1.800000E+10  0.00400  1.525E-05    0   0.4967   age213_m42            0.0000     2.9949E-04     4.5885  -0.5209   160.3644
 18     49.2754     3.5198E+01    3.5205E+01    1.000000E+06  0.00800  1.238E-02    0   1.0000   age020_m52            0.0000     2.6789E-04     4.9834   2.9275   157.4437
 19      0.0000     0.0000E+00    0.0000E+00    3.160000E+06  0.00800  3.074E-02    0   0.9966   age045_m52            0.0000     2.6355E-04     4.9006   2.8566   158.4510
 20      0.9473     3.1398E-01    2.9654E-01    5.010000E+06  0.00800  2.668E-02    0   0.9443   age055_m52            0.0000     2.6289E-04     4.5157   2.6424   159.9977
 21      0.0000     0.0000E+00    0.0000E+00    6.610000E+06  0.00800  2.136E-02    0   0.9177   age061_m52            0.0000     2.7798E-04     3.8052   1.4219   168.9292
 22      0.0000     0.0000E+00    0.0000E+00    1.000000E+07  0.00800  1.215E-02    0   0.8827   age070_m52            0.0000     2.8193E-04     4.1629   2.0888   167.8034
 23      0.0000     0.0000E+00    0.0000E+00    1.445000E+07  0.00800  8.717E-03    0   0.8552   age078_m52            0.0000     2.7284E-04     3.9633   2.2025   166.0128
 24      0.0000     0.0000E+00    0.0000E+00    2.512000E+07  0.00800  5.592E-03    0   0.8162   age090_m52            0.0000     2.8853E-04     4.2194   1.8691   169.1676
 25      0.0000     0.0000E+00    0.0000E+00    4.000000E+07  0.00800  3.896E-03    0   0.7841   age104_m52            0.0000     2.9198E-04     4.2680   1.8019   168.7703
 26      0.0000     0.0000E+00    0.0000E+00    1.015200E+08  0.00800  2.148E-03    0   0.7226   age116_m52            0.0000     2.9011E-04     4.0939   1.7604   166.7893
 27      0.0000     0.0000E+00    0.0000E+00    2.861200E+08  0.00800  9.925E-04    0   0.6683   age125_m52            0.0000     3.1134E-04     4.3807   1.3200   169.8707
 28      0.0000     0.0000E+00    0.0000E+00    9.047900E+08  0.00800  3.141E-04    0   0.6138   age135_m52            0.0000     3.1070E-04     4.4241   0.5804   171.8381
 29      0.0000     0.0000E+00    0.0000E+00    1.434000E+09  0.00800  1.719E-04    0   0.5853   age139_m52            0.0000     2.9764E-04     4.5801  -0.0294   170.2380
 30      0.0000     0.0000E+00    0.0000E+00    2.500000E+09  0.00800  7.872E-05    0   0.5600   age150_m52            0.0000     2.8201E-04     4.4935  -0.3040   165.9736
 31      0.0000     0.0000E+00    0.0000E+00    4.250000E+09  0.00800  4.336E-05    0   0.5426   age158_m52            0.0000     2.8256E-04     4.4546  -0.3205   164.4723
 32      0.0000     0.0000E+00    0.0000E+00    6.250000E+09  0.00800  3.159E-05    0   0.5319   age166_m52            0.0000     2.9433E-04     4.7775  -0.5143   163.6302
 33      0.0000     0.0000E+00    0.0000E+00    1.300000E+10  0.00800  1.361E-05    0   0.5073   age193_m52            0.0000     3.0945E-04     5.2681  -0.9768   161.8788
 34      0.0000     0.0000E+00    0.0000E+00    1.800000E+10  0.00800  9.886E-06    0   0.4990   age213_m52            0.0000     3.2484E-04     5.5598  -1.0000   156.6161
 35      0.0000     0.0000E+00    0.0000E+00    1.000000E+06  0.02000  1.544E-02    0   1.0000   age020_m62            0.0000     2.6738E-04     4.9980   2.9210   157.9789
 36      0.0000     0.0000E+00    0.0000E+00    3.160000E+06  0.02000  3.762E-02    0   0.9858   age045_m62            0.0000     2.6182E-04     4.9937   2.8594   159.3759
 37      0.0000     0.0000E+00    0.0000E+00    5.010000E+06  0.02000  3.296E-02    0   0.9342   age055_m62            0.0000     2.6918E-04     4.5097   2.5456   161.5201
 38      0.0000     0.0000E+00    0.0000E+00    8.710000E+06  0.02000  1.154E-02    0   0.8861   age067_m62            0.0000     3.3216E-04     6.2107   1.4849   177.7993
 39      0.0000     0.0000E+00    0.0000E+00    1.445000E+07  0.02000  7.663E-03    0   0.8472   age078_m62            0.0000     2.9789E-04     4.8730   1.7271   172.3444
 40      0.0000     0.0000E+00    0.0000E+00    2.512000E+07  0.02000  4.532E-03    0   0.8099   age090_m62            0.0000     3.0286E-04     5.1409   1.7192   171.8864
 41      0.0000     0.0000E+00    0.0000E+00    5.500000E+07  0.02000  2.733E-03    0   0.7595   age110_m62            0.0000     2.8415E-04     4.1686   1.7703   168.6150
 42      0.0000     0.0000E+00    0.0000E+00    1.609000E+08  0.02000  1.369E-03    0   0.6985   age120_m62            0.0000     2.9344E-04     4.1481   1.6517   169.7060
 43      0.0000     0.0000E+00    0.0000E+00    2.861200E+08  0.02000  9.013E-04    0   0.6714   age125_m62            0.0000     3.0530E-04     4.1741   1.4361   171.7660
 44      0.0000     0.0000E+00    0.0000E+00    5.088000E+08  0.02000  5.028E-04    0   0.6449   age130_m62            0.0000     3.0675E-04     4.1981   1.1086   172.0494
 45      0.0000     0.0000E+00    0.0000E+00    9.047900E+08  0.02000  2.428E-04    0   0.6179   age135_m62            0.0000     2.8537E-04     4.1757   0.5206   170.7769
 46      0.0000     0.0000E+00    0.0000E+00    1.434000E+09  0.02000  1.263E-04    0   0.5908   age139_m62            0.0000     2.7376E-04     4.2594   0.0584   169.4272
 47      0.0000     0.0000E+00    0.0000E+00    2.500000E+09  0.02000  5.985E-05    0   0.5673   age150_m62            0.0000     2.7370E-04     4.6790  -0.3213   167.7373
 48      0.0000     0.0000E+00    0.0000E+00    4.250000E+09  0.02000  3.271E-05    0   0.5468   age158_m62            0.0000     2.9653E-04     5.3105  -0.6164   165.2708
 49      0.0000     0.0000E+00    0.0000E+00    1.000000E+10  0.02000  1.360E-05    0   0.5167   age181_m62            0.0000     3.1435E-04     6.0483  -0.9617   163.9933
 50      0.0000     0.0000E+00    0.0000E+00    1.800000E+10  0.02000  7.124E-06    0   0.5013   age213_m62            0.0000     3.5009E-04     6.3517  -1.0000   153.9752
 51      0.0000     0.0000E+00    0.0000E+00    1.000000E+06  0.05000  2.592E-02    0   0.9998   age020_m72            0.0000     2.6442E-04     5.0018   2.9032   158.6661
 52      0.0000     0.0000E+00    0.0000E+00    3.160000E+06  0.05000  4.845E-02    0   0.9577   age045_m72            0.0000     2.6042E-04     4.8687   2.7643   159.9253
 53      0.0000     0.0000E+00    0.0000E+00    5.010000E+06  0.05000  3.072E-02    0   0.9147   age055_m72            0.0000     2.7787E-04     4.8203   2.2884   167.0290
 54      0.0000     0.0000E+00    0.0000E+00    6.610000E+06  0.05000  1.455E-02    0   0.8877   age061_m72            0.0000     4.2986E-04     9.0559   1.4922   181.7257
 55      0.0000     0.0000E+00    0.0000E+00    1.000000E+07  0.05000  9.074E-03    0   0.8524   age070_m72            0.0000     3.0734E-04     6.2844   2.4560   166.9020
 56      0.0000     0.0000E+00    0.0000E+00    2.512000E+07  0.05000  4.250E-03    0   0.7902   age090_m72            0.0000     2.9923E-04     5.3492   2.2003   167.3325
 57      0.0000     0.0000E+00    0.0000E+00    4.000000E+07  0.05000  3.087E-03    0   0.7618   age104_m72            0.0000     3.1230E-04     5.5382   1.9874   169.0791
 58      0.0000     0.0000E+00    0.0000E+00    1.015200E+08  0.05000  1.700E-03    0   0.7096   age116_m72            0.0000     3.0155E-04     4.4559   1.7833   169.8782
 59      0.0000     0.0000E+00    0.0000E+00    2.861200E+08  0.05000  7.384E-04    0   0.6633   age125_m72            0.0000     3.0455E-04     4.1768   1.3319   171.7961
 60      0.0000     0.0000E+00    0.0000E+00    5.088000E+08  0.05000  3.819E-04    0   0.6372   age130_m72            0.0000     2.8638E-04     4.0632   0.8632   172.4296
 61      0.0000     0.0000E+00    0.0000E+00    9.047900E+08  0.05000  1.676E-04    0   0.6110   age135_m72            0.0000     2.6992E-04     4.4901   0.1538   169.9043
 62      0.0000     0.0000E+00    0.0000E+00    1.434000E+09  0.05000  8.837E-05    0   0.5874   age139_m72            0.0000     2.8274E-04     4.8279  -0.3057   168.9210
 63      0.0000     0.0000E+00    0.0000E+00    2.500000E+09  0.05000  4.233E-05    0   0.5598   age150_m72            0.0000     2.9040E-04     5.5656  -0.6223   166.9862
 64      0.0000     0.0000E+00    0.0000E+00    6.250000E+09  0.05000  1.435E-05    0   0.5249   age166_m72            0.0000     3.2265E-04     6.1830  -1.0000   160.3495
 65      0.0000     0.0000E+00    0.0000E+00    1.300000E+10  0.05000  6.513E-06    0   0.5036   age193_m72            0.0000     4.2688E-04     7.7969  -1.0000   147.5972
 66      0.0000     0.0000E+00    0.0000E+00    1.800000E+10  0.05000  4.527E-06    0   0.4945   age213_m72            0.0000     5.3889E-04     9.6143  -1.0000   139.1116


## Synthesis Results - Average & Chains ##

# j      x_j: min, <> & last-chain-values for 1 ...  7 chains
  1     79.7774     13.5241      3.3431     12.6646     14.1591     10.3141      5.1445     15.5382      8.5280
  2      0.0000      4.1377      4.7868      4.0405      3.8339      4.8900      0.0000      3.1412      2.8149
  3      0.0000      0.4693      0.0000      0.6653      0.0000      1.5229      3.7502      0.0168      0.0000
  4      0.0000      0.3481      0.9612      0.0000      0.5457      0.0000      2.2050      0.0000      0.1892
  5      0.0000      0.3615      2.7660      0.2065      0.0000      2.1254      3.6161      0.1052      0.0000
  6      0.0000      0.3025      2.8120      0.4925      0.1785      1.1630      0.0000      0.3364      0.0343
  7      0.0000      0.3659      0.7002      1.1063      0.1854      0.0182      0.0000      0.1170      0.3638
  8      0.0000      0.3441      0.0000      0.0000      0.0000      0.5429      0.9545      0.3131      0.0000
  9      0.0000      0.3843      0.0000      0.0000      1.1723      2.5350      0.1076      0.0000      2.8355
 10      0.0000      0.4193      1.3823      0.9657      0.2390      3.4117      1.0740      0.2482      1.1177
 11      0.0000      0.3402      0.9551      0.2008      0.0458      2.0090      0.4771      0.0000      0.2451
 12      0.0000      0.3717      0.3226      1.4929      0.1172      0.0304      3.2055      0.1626      0.9231
 13      0.0000      4.2492      4.0771      3.5469      4.8938      3.8441      2.2246      3.2099      3.2258
 14      0.0000      0.4689      0.1808      0.0000      0.4130      2.4038      2.8924      2.2586      1.2894
 15      0.0000      0.3784      0.4250      0.8260      0.0000      0.0000      0.4264      0.0000      0.3028
 16      0.0000      0.4950      0.0000      2.9120      0.1925      0.0000      3.6803      0.2381      2.5725
 17      0.0000      0.3732      2.2615      0.4561      0.0000      2.3868      0.9646      0.3116      0.9864
 18     49.2754     10.0801      5.4387      6.3699      9.2965      3.8170      4.2197      9.0827      5.5977
 19      0.0000      2.9542      0.0000      2.5655      2.8237      0.2570      2.7729      2.7587      1.5661
 20      0.9473      0.3631      1.0464      0.0000      0.4567      0.0000      0.0000      0.0000      3.0353
 21      0.0000      0.3952      2.9482      0.1033      0.2156      0.0000      0.0000      0.4621      0.2134
 22      0.0000      0.3840      0.6552      0.2035      0.0772      0.0000      1.4442      1.1990      0.0000
 23      0.0000      0.3218      0.9746      1.0690      0.7256      0.9707      0.0139      0.5879      1.2307
 24      0.0000      0.5265      4.1527      0.0828      0.0000      3.4392      2.4908      0.0406      0.0000
 25      0.0000      0.3372      0.1359      0.0000      0.7849      0.4142      0.0000      0.2787      0.7076
 26      0.0000      0.2969      1.5167      0.1676      0.6536      2.2396      0.9927      0.4715      0.0000
 27      0.0000      0.2662      0.0000      0.0000      0.0000      0.0000      0.2034      0.4333      0.0000
 28      0.0000      0.2709      0.3294      0.0363      0.5979      0.0000      0.5023      0.5631      0.0000
 29      0.0000      0.3478      0.9655      0.0000      1.0358      0.0000      0.7588      0.0000      1.0566
 30      0.0000      0.3866      0.8686      1.0634      0.4228      1.7431      3.2553      0.0000      1.5822
 31      0.0000      0.3950      4.8685      1.9680      1.1077      1.0635      1.1267      0.8902      0.2254
 32      0.0000      0.3852      0.0000      0.1659      1.0777      0.6950      4.2360      0.8689      0.0000
 33      0.0000      0.4410      2.3928      0.0000      0.0000      1.0438      1.5419      0.0000      1.7052
 34      0.0000      4.2622      4.3443      4.4680      6.2647      4.6127      0.2772      6.7642      4.6690
 35      0.0000      7.3341      1.8747      6.0257      5.9803      3.8212      6.4765      8.0233      7.5074
 36      0.0000      0.4037      0.0000      0.0000      0.0000      0.2383      0.0000      0.1315      0.0760
 37      0.0000      0.3743      4.6530      0.3549      0.4691      0.0000      0.6926      0.0000      0.0000
 38      0.0000      0.3756      1.6113      0.0000      0.6925      1.0999      0.0000      1.3176      0.1349
 39      0.0000      0.3647      1.4598      0.1223      0.0000      1.9230      0.0000      0.1369      0.6753
 40      0.0000      0.3451      0.0000      0.0000      0.0173      0.6080      2.4923      0.6658      0.0000
 41      0.0000      0.4228      0.4591      1.2169      0.6850      2.0503      1.2164      0.0000      0.3191
 42      0.0000      0.4173      0.0000      0.5067      0.5540      0.0000      2.2653      0.0585      0.9112
 43      0.0000      0.4070      0.0000      0.0593      0.0000      2.2164      1.5280      0.9597      0.0000
 44      0.0000      0.3743      0.0000      2.0504      1.0929      0.0000      0.0000      0.0000      1.7759
 45      0.0000      0.3823      4.7734      0.3410      0.6000      0.0000      0.0000      0.0000      0.7985
 46      0.0000      0.4445      1.3754      0.7279      0.3456      0.0242      0.9631      0.2496      1.3581
 47      0.0000      0.3335      1.4618      0.4112      0.4578      0.5966      0.0000      1.6362      0.3738
 48      0.0000      0.3760      1.6863      1.5269      0.8500      0.7439      3.6177      1.0810      0.4628
 49      0.0000      0.5392      1.4202      2.0584      0.0117      1.7563      1.7134      0.3591      1.0101
 50      0.0000      6.2200      2.9452      5.8310      7.1296      8.8270      5.3571      5.9600      8.0451
 51      0.0000      7.7568      5.5711      7.7216      7.6476      0.4437      6.4903      7.6750      5.1749
 52      0.0000      0.3332      0.1351      0.0177      0.0000      0.3152      0.4419      0.1803      0.0000
 53      0.0000      0.2938      1.2012      0.2567      0.0000      0.0000      0.0000      0.0000      0.2272
 54      0.0000      0.5573      0.9173      0.7956      0.0961      0.0000      1.7205      0.8571      0.6558
 55      0.0000      0.2717      0.9121      0.0970      0.8834      0.0000      0.0000      0.3384      0.4320
 56      0.0000      0.2683      0.7402      1.5194      0.0000      1.8705      0.7504      0.0000      0.0000
 57      0.0000      0.4746      3.6733      1.4375      0.0000      1.2081      3.7421      0.2566      2.5653
 58      0.0000      0.4500      0.0000      0.0000      0.0786      4.2374      0.0000      0.0000      0.0000
 59      0.0000      0.3115      0.4452      0.0000      0.3331      0.0000      2.9468      0.0000      0.4055
 60      0.0000      0.4372      1.0743      0.0000      0.5018      0.0000      1.2959      0.0000      1.4643
 61      0.0000      0.4591      0.9647      1.6181      1.1469      1.0687      1.2908      0.2662      1.9700
 62      0.0000      0.3475      0.0547      0.6705      1.4312      1.2261      0.4418      0.5532      1.9573
 63      0.0000      0.3679      0.0000      0.1704      1.2857      2.4816      0.3907      1.0426      0.3255
 64      0.0000     13.7451      7.9074     10.3733     11.6398      6.5955      3.4749     12.2991     11.3534
 65      0.0000      8.7803      4.9369     11.6714      7.6703      4.2996      3.8512      9.8601      6.6568
 66      0.0000      4.0818      2.5002      2.2226      4.8771      2.7584      2.0705      3.5002      4.1853

# j      m_j: min, <> & last-chain-values for 1 ...  7 chains
  1  6.4499E+01  5.1341E-02  1.7456E-02  4.7467E-02  5.1954E-02  4.5838E-02  3.0673E-02  5.6814E-02  3.1363E-02
  2  0.0000E+00  4.2881E-03  6.8233E-03  4.1342E-03  3.8405E-03  5.9328E-03  0.0000E+00  3.1355E-03  2.8260E-03
  3  0.0000E+00  7.2838E-04  0.0000E+00  1.0194E-03  0.0000E+00  2.7670E-03  9.1408E-03  2.5078E-05  0.0000E+00
  4  0.0000E+00  5.0879E-04  1.9322E-03  0.0000E+00  7.7093E-04  0.0000E+00  5.0613E-03  0.0000E+00  2.6781E-04
  5  0.0000E+00  1.0065E-03  1.0592E-02  5.6749E-04  0.0000E+00  6.9271E-03  1.5811E-02  2.8208E-04  0.0000E+00
  6  0.0000E+00  1.3661E-03  1.7465E-02  2.1956E-03  7.7910E-04  6.1479E-03  0.0000E+00  1.4633E-03  1.4985E-04
  7  0.0000E+00  2.3655E-03  6.2266E-03  7.0613E-03  1.1583E-03  1.3799E-04  0.0000E+00  7.2858E-04  2.2786E-03
  8  0.0000E+00  3.0745E-03  0.0000E+00  0.0000E+00  0.0000E+00  5.6792E-03  1.3395E-02  2.6944E-03  0.0000E+00
  9  0.0000E+00  3.9301E-03  0.0000E+00  0.0000E+00  1.1588E-02  3.0352E-02  1.7281E-03  0.0000E+00  2.8093E-02
 10  0.0000E+00  5.6333E-03  2.5543E-02  1.2808E-02  3.1029E-03  5.3657E-02  2.2660E-02  3.2121E-03  1.4547E-02
 11  0.0000E+00  8.5944E-03  3.3183E-02  5.0072E-03  1.1171E-03  5.9412E-02  1.8928E-02  0.0000E+00  5.9988E-03
 12  0.0000E+00  1.4895E-02  1.7778E-02  5.9063E-02  4.5382E-03  1.4247E-03  2.0173E-01  6.2767E-03  3.5832E-02
 13  0.0000E+00  4.7992E-01  6.3337E-01  3.9551E-01  5.3425E-01  5.0827E-01  3.9460E-01  3.4918E-01  3.5295E-01
 14  0.0000E+00  1.7764E-01  9.4182E-02  0.0000E+00  1.5122E-01  1.0660E+00  1.7208E+00  8.2407E-01  4.7319E-01
 15  0.0000E+00  2.3338E-01  3.6048E-01  5.0294E-01  0.0000E+00  0.0000E+00  4.1296E-01  0.0000E+00  1.8092E-01
 16  0.0000E+00  5.1612E-01  0.0000E+00  2.9979E+00  1.9399E-01  0.0000E+00  6.0271E+00  2.3917E-01  2.5986E+00
 17  0.0000E+00  5.0484E-01  4.2076E+00  6.0906E-01  0.0000E+00  3.7797E+00  2.0493E+00  4.0603E-01  1.2925E+00
 18  3.5205E+01  3.3816E-02  2.5095E-02  2.1097E-02  3.0144E-02  1.4991E-02  2.2232E-02  2.9347E-02  1.8192E-02
 19  0.0000E+00  3.9777E-03  0.0000E+00  3.4104E-03  3.6748E-03  4.0504E-04  5.8637E-03  3.5776E-03  2.0428E-03
 20  2.9654E-01  5.3375E-04  2.1156E-03  0.0000E+00  6.4893E-04  0.0000E+00  0.0000E+00  0.0000E+00  4.3222E-03
 21  0.0000E+00  7.0523E-04  7.2354E-03  1.8204E-04  3.7182E-04  0.0000E+00  0.0000E+00  7.9424E-04  3.6890E-04
 22  0.0000E+00  1.1585E-03  2.7191E-03  6.0633E-04  2.2525E-04  0.0000E+00  6.8434E-03  3.4845E-03  0.0000E+00
 23  0.0000E+00  1.3112E-03  5.4621E-03  4.3003E-03  2.8575E-03  4.6304E-03  8.8699E-05  2.3072E-03  4.8579E-03
 24  0.0000E+00  3.1918E-03  3.4623E-02  4.9528E-04  0.0000E+00  2.4406E-02  2.3713E-02  2.3689E-04  0.0000E+00
 25  0.0000E+00  2.8181E-03  1.5628E-03  0.0000E+00  6.3414E-03  4.0527E-03  0.0000E+00  2.2435E-03  5.7294E-03
 26  0.0000E+00  4.1485E-03  2.9146E-02  2.3124E-03  8.8267E-03  3.6630E-02  2.1783E-02  6.3442E-03  0.0000E+00
 27  0.0000E+00  7.4443E-03  0.0000E+00  0.0000E+00  0.0000E+00  0.0000E+00  8.9355E-03  1.1671E-02  0.0000E+00
 28  0.0000E+00  2.1985E-02  3.6775E-02  2.9052E-03  4.6898E-02  0.0000E+00  6.4021E-02  4.4015E-02  0.0000E+00
 29  0.0000E+00  4.9177E-02  1.8778E-01  0.0000E+00  1.4157E-01  0.0000E+00  1.6851E-01  0.0000E+00  1.4474E-01
 30  0.0000E+00  1.1422E-01  3.5298E-01  3.1017E-01  1.2074E-01  6.0289E-01  1.5105E+00  0.0000E+00  4.5283E-01
 31  0.0000E+00  2.0527E-01  3.4802E+00  1.0098E+00  5.5646E-01  6.4705E-01  9.1966E-01  4.4563E-01  1.1348E-01
 32  0.0000E+00  2.6937E-01  0.0000E+00  1.1457E-01  7.2839E-01  5.6894E-01  4.6521E+00  5.8520E-01  0.0000E+00
 33  0.0000E+00  6.8269E-01  5.0948E+00  0.0000E+00  0.0000E+00  1.8917E+00  3.7487E+00  0.0000E+00  2.5572E+00
 34  0.0000E+00  8.9347E+00  1.2526E+01  9.2472E+00  1.2694E+01  1.1320E+01  9.1277E-01  1.3658E+01  9.4817E+00
 35  0.0000E+00  1.9727E-02  6.9359E-03  1.6002E-02  1.5548E-02  1.2033E-02  2.7360E-02  2.0786E-02  1.9562E-02
 36  0.0000E+00  4.3937E-04  0.0000E+00  0.0000E+00  0.0000E+00  3.0360E-04  0.0000E+00  1.3782E-04  8.0130E-05
 37  0.0000E+00  4.4054E-04  7.5336E-03  4.1242E-04  5.3371E-04  0.0000E+00  1.2805E-03  0.0000E+00  0.0000E+00
 38  0.0000E+00  1.1978E-03  7.0676E-03  0.0000E+00  2.1344E-03  4.1062E-03  0.0000E+00  4.0470E-03  4.1673E-04
 39  0.0000E+00  1.6746E-03  9.2190E-03  5.5461E-04  0.0000E+00  1.0337E-02  0.0000E+00  6.0565E-04  3.0039E-03
 40  0.0000E+00  2.5614E-03  0.0000E+00  0.0000E+00  1.2395E-04  5.2829E-03  2.9051E-02  4.7592E-03  0.0000E+00
 41  0.0000E+00  4.8793E-03  7.2883E-03  1.3867E-02  7.6412E-03  2.7702E-02  2.2048E-02  0.0000E+00  3.5680E-03
 42  0.0000E+00  8.8417E-03  0.0000E+00  1.0600E-02  1.1348E-02  0.0000E+00  7.5391E-02  1.1945E-03  1.8706E-02
 43  0.0000E+00  1.2591E-02  0.0000E+00  1.8125E-03  0.0000E+00  8.0275E-02  7.4245E-02  2.8598E-02  0.0000E+00
 44  0.0000E+00  1.9937E-02  0.0000E+00  1.0783E-01  5.6273E-02  0.0000E+00  0.0000E+00  0.0000E+00  9.1642E-02
 45  0.0000E+00  4.0407E-02  6.9393E-01  3.5588E-02  6.1292E-02  0.0000E+00  0.0000E+00  0.0000E+00  8.1754E-02
 46  0.0000E+00  8.6354E-02  3.6751E-01  1.3961E-01  6.4894E-02  5.5079E-03  2.9384E-01  4.6712E-02  2.5560E-01
 47  0.0000E+00  1.3128E-01  7.9151E-01  1.5980E-01  1.7420E-01  2.7497E-01  0.0000E+00  6.2037E-01  1.4254E-01
 48  0.0000E+00  2.6104E-01  1.6102E+00  1.0466E+00  5.7037E-01  6.0458E-01  3.9446E+00  7.2282E-01  3.1129E-01
 49  0.0000E+00  8.5078E-01  3.0823E+00  3.2067E+00  1.7822E-02  3.2442E+00  4.2460E+00  5.4570E-01  1.5439E+00
 50  0.0000E+00  1.8178E+01  1.1839E+01  1.6824E+01  2.0139E+01  3.0199E+01  2.4588E+01  1.6776E+01  2.2777E+01
 51  0.0000E+00  1.2426E-02  1.2275E-02  1.2212E-02  1.1842E-02  8.3204E-04  1.6329E-02  1.1842E-02  8.0309E-03
 52  0.0000E+00  2.7357E-04  1.5252E-04  1.4312E-05  0.0000E+00  3.0297E-04  5.6979E-04  1.4255E-04  0.0000E+00
 53  0.0000E+00  3.6337E-04  2.0430E-03  3.1337E-04  0.0000E+00  0.0000E+00  0.0000E+00  0.0000E+00  2.7222E-04
 54  0.0000E+00  1.4121E-03  3.1970E-03  1.9902E-03  2.3545E-04  0.0000E+00  6.8468E-03  2.0917E-03  1.6099E-03
 55  0.0000E+00  1.0600E-03  4.8945E-03  3.7380E-04  3.3311E-03  0.0000E+00  0.0000E+00  1.2718E-03  1.6328E-03
 56  0.0000E+00  2.0716E-03  7.8616E-03  1.1584E-02  0.0000E+00  1.6909E-02  9.1009E-03  0.0000E+00  0.0000E+00
 57  0.0000E+00  4.8645E-03  5.1782E-02  1.4545E-02  0.0000E+00  1.4495E-02  6.0234E-02  2.5331E-03  2.5469E-02
 58  0.0000E+00  7.8009E-03  0.0000E+00  0.0000E+00  1.3168E-03  8.5995E-02  0.0000E+00  0.0000E+00  0.0000E+00
 59  0.0000E+00  1.1622E-02  2.2845E-02  0.0000E+00  1.2013E-02  0.0000E+00  1.7266E-01  0.0000E+00  1.4655E-02
 60  0.0000E+00  3.0296E-02  1.0239E-01  0.0000E+00  3.3611E-02  0.0000E+00  1.4103E-01  0.0000E+00  9.8294E-02
 61  0.0000E+00  6.9503E-02  2.0090E-01  2.4188E-01  1.6785E-01  1.8943E-01  3.0694E-01  3.8820E-02  2.8894E-01
 62  0.0000E+00  9.5934E-02  2.0781E-02  1.8276E-01  3.8190E-01  3.9624E-01  1.9154E-01  1.4710E-01  5.2344E-01
 63  0.0000E+00  2.0204E-01  0.0000E+00  9.2415E-02  6.8255E-01  1.5956E+00  3.3699E-01  5.5156E-01  1.7319E-01
 64  0.0000E+00  2.0881E+01  1.6522E+01  1.5558E+01  1.7091E+01  1.1730E+01  8.2907E+00  1.7996E+01  1.6708E+01
 65  0.0000E+00  2.8196E+01  2.1806E+01  3.7004E+01  2.3808E+01  1.6164E+01  1.9423E+01  3.0497E+01  2.0709E+01
 66  0.0000E+00  1.8518E+01  1.5601E+01  9.9549E+00  2.1386E+01  1.4650E+01  1.4752E+01  1.5294E+01  1.8394E+01

# AV, chi2 & Mass for <> & i_chain = 1 ...  7 solutions
AV       3.3629      1.0799      1.2230      1.0520      1.0608      1.1695      1.3474      1.0617      0.9905
chi2 4.3132E-04  1.3024E-03  1.1899E-03  1.2738E-03  1.2725E-03  1.2595E-03  1.2080E-03  1.2843E-03  1.2514E-03
Mass 5.3610E-13  5.3197E-12  4.6873E-12  5.1899E-12  5.3645E-12  5.1252E-12  4.8517E-12  5.3902E-12  4.8703E-12
-430.29                                  [v0_min (km/s) before EX0s...]
 305.52                                  [vd_min (km/s) before EX0s...]


## Synthetic spectrum (Best Model) ##l_obs f_obs f_syn wei
 3478    [Nl_obs]
 3741.00    0.75801   1.14414    0.000
 3742.00    0.76185   1.13501    0.000
 3743.00    0.73605   1.12764    0.000
 3744.00    0.75569   1.12298    0.000
 3745.00    0.80179   1.12190   -1.000
 3746.00    0.86347   1.12465   -1.000
 3747.00    0.93304   1.13045   -1.000
 3748.00    0.93458   1.13947   -1.000
 3749.00    0.90620   1.15007   -1.000
 3750.00    0.88008   1.16070   -1.000
 3751.00    0.85480   1.17192   -1.000
 3752.00    0.84124   1.18128   -1.000
 3753.00    0.83144   1.18812   -1.000
 3754.00    0.82870   1.19358   -1.000
 3755.00    0.82786   1.19533   -1.000
 3756.00    0.85734   1.19355   -1.000
 3757.00    0.89347   1.18915   -1.000
 3758.00    0.87556   1.18079   -1.000
 3759.00    0.84822   1.16933   -1.000
 3760.00    0.82788   1.15583   -1.000
 3761.00    0.80848   1.14104   -1.000
 3762.00    0.83043   1.12689   -1.000
 3763.00    0.85627   1.11459   -1.000
 3764.00    0.81180   1.10599   -1.000
 3765.00    0.76328   1.10287   -1.000
 3766.00    0.74160   1.10486   -1.000
 3767.00    0.72036   1.11218   -1.000
 3768.00    0.67503   1.12472   -1.000
 3769.00    0.63166   1.14034   -1.000
 3770.00    0.63573   1.15774   -1.000
 3771.00    0.63985   1.17587   -1.000
 3772.00    0.64460   1.19291   -1.000
 3773.00    0.65341   1.20820   -1.000
 3774.00    0.69794   1.22121   -1.000
 3775.00    0.73448   1.23148   -1.000
 3776.00    0.71927   1.23923   -1.000
 3777.00    0.70340   1.24434   -1.000
 3778.00    0.68427   1.24686   -1.000
 3779.00    0.68356   1.24713   -1.000
 3780.00    0.75828   1.24487   -1.000
 3781.00    0.83343   1.23987   -1.000
 3782.00    0.91002   1.23241   -1.000
 3783.00    0.94966   1.22201   -1.000
 3784.00    0.88363   1.20829   -1.000
 3785.00    0.83620   1.19209   -1.000
 3786.00    0.83424   1.17341   -1.000
 3787.00    0.84402   1.15258   -1.000
 3788.00    0.87856   1.13158   -1.000
 3789.00    0.91109   1.11188   -1.000
 3790.00    0.93992   1.09447   -1.000
 3791.00    0.94133   1.08197   -1.000
 3792.00    0.89886   1.07639   -1.000
 3793.00    0.85709   1.07721   -1.000
 3794.00    0.81630   1.08462   -1.000
 3795.00    0.77290   1.09836   -1.000
 3796.00    0.72630   1.11638   -1.000
 3797.00    0.69832   1.13701   -1.000
 3798.00    0.69065   1.15859   -1.000
 3799.00    0.69374   1.17939   -1.000
 3800.00    0.70717   1.19858   -1.000
 3801.00    0.73503   1.21538   -1.000
 3802.00    0.77513   1.22920   -1.000
 3803.00    0.82062   1.24036   -1.000
 3804.00    0.87012   1.24884   -1.000
 3805.00    0.89040   1.25463   -1.000
 3806.00    0.89153   1.25801   -1.000
 3807.00    0.85972   1.25917   -1.000
 3808.00    0.80901   1.25836   -1.000
 3809.00    0.78901   1.25554   -1.000
 3810.00    0.78436   1.25176   -1.000
 3811.00    0.79358   1.24761   -1.000
 3812.00    0.80881   1.24227   -1.000
 3813.00    0.80925   1.23824   -1.000
 3814.00    0.80421   1.23637   -1.000
 3815.00    0.80195   1.23382   -1.000
 3816.00    0.80055   1.23233   -1.000
 3817.00    0.79254   1.23191   -1.000
 3818.00    0.78280   1.22942   -1.000
 3819.00    0.74592   1.22507   -1.000
 3820.00    0.70323   1.21796   -1.000
 3821.00    0.70462   1.20688   -1.000
 3822.00    0.71350   1.19200   -1.000
 3823.00    0.67218   1.17324   -1.000
 3824.00    0.62443   1.15142   -1.000
 3825.00    0.53001   1.12781   -1.000
 3826.00    0.43140   1.10431   -1.000
 3827.00    0.48837   1.08300   -1.000
 3828.00    0.55372   1.06572   -1.000
 3829.00    0.63803   1.05537   -1.000
 3830.00    0.72182   1.05294   -1.000
 3831.00    0.72987   1.05773   -1.000
 3832.00    0.73855   1.07047   -1.000
 3833.00    0.76138   1.08975   -1.000
 3834.00    0.78189   1.11252   -1.000
 3835.00    0.77365   1.13731   -1.000
 3836.00    0.76513   1.16225   -1.000
 3837.00    0.75419   1.18555   -1.000
 3838.00    0.74795   1.20648   -1.000
 3839.00    0.77125   1.22442   -1.000
 3840.00    0.78151   1.23935   -1.000
 3841.00    0.72744   1.25146   -1.000
 3842.00    0.68395   1.26103   -1.000
 3843.00    0.68280   1.26855   -1.000
 3844.00    0.70892   1.27424   -1.000
 3845.00    0.82570   1.27854   -1.000
 3846.00    0.89598   1.28168   -1.000
 3847.00    0.83563   1.28392    0.000
 3848.00    0.79875   1.28550    0.000
 3849.00    0.81820   1.28653    0.000
 3850.00    0.82509   1.28731    0.000
 3851.00    0.80592   1.28790    0.000
 3852.00    0.79122   1.28824    0.000
 3853.00    0.78461   1.28861    0.000
 3854.00    0.77788   1.28898    0.000
 3855.00    0.77098   1.28891    0.000
 3856.00    0.76948   1.28881    0.000
 3857.00    0.77545   1.28843    0.000
 3858.00    0.78820   1.28756    0.000
 3859.00    0.80920   1.28665    0.000
 3860.00    0.80903   1.28509    0.000
 3861.00    0.78613   1.28363    0.000
 3862.00    0.76894   1.28236    0.000
 3863.00    0.75716   1.28026    0.000
 3864.00    0.71060   1.27852    0.000
 3865.00    0.63498   1.27701    0.000
 3866.00    0.59972   1.27512    0.000
 3867.00    0.59417   1.27259    0.000
 3868.00    0.55331   1.26950    0.000
 3869.00    0.48964   1.26587    0.000
 3870.00    0.45899   1.26090    0.000
 3871.00    0.44699   1.25404    0.000
 3872.00    0.46646   1.24509    0.000
 3873.00    0.50142   1.23370    0.000
 3874.00    0.54295   1.21913    0.000
 3875.00    0.58727   1.20139    0.000
 3876.00    0.60487   1.18017    0.000
 3877.00    0.61275   1.15604    0.000
 3878.00    0.60550   1.13032    0.000
 3879.00    0.59359   1.10372    0.000
 3880.00    0.62502   1.07875    0.000
 3881.00    0.66758   1.05744   -1.000
 3882.00    0.72128   1.04172   -1.000
 3883.00    0.77731   1.03426   -1.000
 3884.00    0.79197   1.03460   -1.000
 3885.00    0.79981   1.04298   -1.000
 3886.00    0.81414   1.06031   -1.000
 3887.00    0.82926   1.08321   -1.000
 3888.00    0.82382   1.10876   -1.000
 3889.00    0.81661   1.13570   -1.000
 3890.00    0.81794   1.16184   -1.000
 3891.00    0.81969   1.18589   -1.000
 3892.00    0.83053   1.20711   -1.000
 3893.00    0.84095   1.22505   -1.000
 3894.00    0.81485   1.24004   -1.000
 3895.00    0.78864   1.25216   -1.000
 3896.00    0.75998   1.26197   -1.000
 3897.00    0.73523   1.26984   -1.000
 3898.00    0.75654   1.27609   -1.000
 3899.00    0.76812   1.28107   -1.000
 3900.00    0.70044   1.28508   -1.000
 3901.00    0.63977   1.28826   -1.000
 3902.00    0.62198   1.29075   -1.000
 3903.00    0.60186   1.29263   -1.000
 3904.00    0.57059   1.29409   -1.000
 3905.00    0.54216   1.29501   -1.000
 3906.00    0.52482   1.29548   -1.000
 3907.00    0.53591   1.29547   -1.000
 3908.00    0.63965   1.29484   -1.000
 3909.00    0.71978   1.29385   -1.000
 3910.00    0.73480   1.29216   -1.000
 3911.00    0.74455   1.28986   -1.000
 3912.00    0.74183   1.28718   -1.000
 3913.00    0.74732   1.28413   -1.000
 3914.00    0.76954   1.28083   -1.000
 3915.00    0.79781   1.27770   -1.000
 3916.00    0.83681   1.27512   -1.000
 3917.00    0.83941   1.27293   -1.000
 3918.00    0.78544   1.27193   -1.000
 3919.00    0.76255   1.27178   -1.000
 3920.00    0.78205   1.27259   -1.000
 3921.00    0.81966   1.27474   -1.000
 3922.00    0.87901   1.27696   -1.000
 3923.00    0.90098   1.27993   -1.000
 3924.00    0.88335   1.28345   -1.000
 3925.00    0.87697   1.28632   -1.000
 3926.00    0.88107   1.28914   -1.000
 3927.00    0.91057   1.29160   -1.000
 3928.00    0.96099   1.29374   -1.000
 3929.00    0.94774   1.29557   -1.000
 3930.00    0.88834   1.29708   -1.000
 3931.00    0.85551   1.29856   -1.000
 3932.00    0.83959   1.29979   -1.000
 3933.00    0.84563   1.30081   -1.000
 3934.00    0.86391   1.30160   -1.000
 3935.00    0.87144   1.30205   -1.000
 3936.00    0.87377   1.30223   -1.000
 3937.00    0.91589   1.30221   -1.000
 3938.00    0.97464   1.30183   -1.000
 3939.00    0.96251   1.30125   -1.000
 3940.00    0.92502   1.30050   -1.000
 3941.00    0.88753   1.29943   -1.000
 3942.00    0.85003   1.29833   -1.000
 3943.00    0.81918   1.29685   -1.000
 3944.00    0.79000   1.29506   -1.000
 3945.00    0.77923   1.29290   -1.000
 3946.00    0.77222   1.29033   -1.000
 3947.00    0.80793   1.28713   -1.000
 3948.00    0.85048   1.28307   -1.000
 3949.00    0.91385   1.27829   -1.000
 3950.00    0.97970   1.27198   -1.000
 3951.00    1.04219   1.26442   -1.000
 3952.00    1.10441   1.25476   -1.000
 3953.00    1.03109   1.24274   -1.000
 3954.00    0.95153   1.22859   -1.000
 3955.00    0.94478   1.21077   -1.000
 3956.00    0.93919   1.19024   -1.000
 3957.00    0.94602   1.16696   -1.000
 3958.00    0.94964   1.14098   -1.000
 3959.00    0.89262   1.11435   -1.000
 3960.00    0.84187   1.08705    0.000
 3961.00    0.86197   1.06183    0.000
 3962.00    0.88561   1.04249    0.000
 3963.00    0.93714   1.02897    0.000
 3964.00    0.96518   1.02292    0.000
 3965.00    0.85383   1.02545    0.000
 3966.00    0.76885   1.03599    0.000
 3967.00    0.80775   1.05478    0.000
 3968.00    0.83269   1.07904    0.000
 3969.00    0.80414   1.10572    0.000
 3970.00    0.78862   1.13367    0.000
 3971.00    0.81476   1.16093    0.000
 3972.00    0.86666   1.18568    0.000
 3973.00    0.98836   1.20756    0.000
 3974.00    1.07034   1.22611    0.000
 3975.00    1.06008   1.24145    0.000
 3976.00    1.02754   1.25418    0.000
 3977.00    0.95025   1.26429    0.000
 3978.00    0.90720   1.27245    0.000
 3979.00    0.92406   1.27913    0.000
 3980.00    0.95325   1.28446    0.000
 3981.00    1.00133   1.28890   -1.000
 3982.00    1.04212   1.29248   -1.000
 3983.00    1.07312   1.29541   -1.000
 3984.00    1.08470   1.29786   -1.000
 3985.00    1.07326   1.29979   -1.000
 3986.00    1.02503   1.30133   -1.000
 3987.00    0.93836   1.30263   -1.000
 3988.00    0.90567   1.30372   -1.000
 3989.00    0.92268   1.30445   -1.000
 3990.00    0.98140   1.30508   -1.000
 3991.00    1.07397   1.30555   -1.000
 3992.00    1.08337   1.30576   -1.000
 3993.00    1.03337   1.30592   -1.000
 3994.00    1.00317   1.30553   -1.000
 3995.00    0.98539   1.30507   -1.000
 3996.00    1.01796   1.30439   -1.000
 3997.00    1.07812   1.30325   -1.000
 3998.00    1.06069   1.30207   -1.000
 3999.00    1.00630   1.30053   -1.000
 4000.00    0.95778   1.29905   -1.000
 4001.00    0.91167   1.29799   -1.000
 4002.00    0.95321   1.29716   -1.000
 4003.00    1.02553   1.29678   -1.000
 4004.00    1.07468   1.29679   -1.000
 4005.00    1.11698   1.29720   -1.000
 4006.00    1.07454   1.29800   -1.000
 4007.00    1.01128   1.29873   -1.000
 4008.00    1.01502   1.29905   -1.000
 4009.00    1.03207   1.29862   -1.000
 4010.00    0.98402   1.29706   -1.000
 4011.00    0.92585   1.29392   -1.000
 4012.00    0.95529   1.28899   -1.000
 4013.00    0.99481   1.28241   -1.000
 4014.00    1.02031   1.27411   -1.000
 4015.00    1.04473   1.26432   -1.000
 4016.00    1.02214   1.25371   -1.000
 4017.00    0.99758   1.24326   -1.000
 4018.00    1.02702   1.23552   -1.000
 4019.00    1.05589   1.23023   -1.000
 4020.00    1.03806   1.22759   -1.000
 4021.00    1.02304   1.22917   -1.000
 4022.00    1.05759   1.23407   -1.000
 4023.00    1.09057   1.24272   -1.000
 4024.00    1.10654   1.25334   -1.000
 4025.00    1.11170   1.26415   -1.000
 4026.00    1.03475   1.27526   -1.000
 4027.00    0.97215   1.28551   -1.000
 4028.00    0.99234   1.29427   -1.000
 4029.00    1.00097   1.30129   -1.000
 4030.00    0.95667   1.30679   -1.000
 4031.00    0.91327   1.31080   -1.000
 4032.00    0.87321   1.31379   -1.000
 4033.00    0.85286   1.31589   -1.000
 4034.00    0.89431   1.31724   -1.000
 4035.00    0.90946   1.31832   -1.000
 4036.00    0.85464   1.31899   -1.000
 4037.00    0.82458   1.31955   -1.000
 4038.00    0.85107   1.32004   -1.000
 4039.00    0.89085   1.32042   -1.000
 4040.00    0.95687   1.32080   -1.000
 4041.00    0.99901   1.32121   -1.000
 4042.00    1.00000   1.32155   -1.000
 4043.00    0.99459   1.32191   -1.000
 4044.00    0.97953   1.32230   -1.000
 4045.00    0.96944   1.32252   -1.000
 4046.00    0.96593   1.32291   -1.000
 4047.00    0.97417   1.32318   -1.000
 4048.00    0.99613   1.32342   -1.000
 4049.00    1.03181   1.32370   -1.000
 4050.00    1.08161   1.32365   -1.000
 4051.00    1.10197   1.32366   -1.000
 4052.00    1.09561   1.32351   -1.000
 4053.00    1.07224   1.32300   -1.000
 4054.00    1.03525   1.32231   -1.000
 4055.00    1.02475   1.32127   -1.000
 4056.00    1.03290   1.31990   -1.000
 4057.00    1.05374   1.31839   -1.000
 4058.00    1.08241   1.31635   -1.000
 4059.00    1.10083   1.31411   -1.000
 4060.00    1.11371   1.31194   -1.000
 4061.00    1.07381   1.30966   -1.000
 4062.00    1.00919   1.30778   -1.000
 4063.00    1.01263   1.30622   -1.000
 4064.00    1.04357   1.30497   -1.000
 4065.00    1.06479   1.30474   -1.000
 4066.00    1.08268   1.30473   -1.000
 4067.00    1.05002   1.30530   -1.000
 4068.00    1.00269   1.30630   -1.000
 4069.00    0.98159   1.30703   -1.000
 4070.00    0.96679   1.30807   -1.000
 4071.00    0.96762   1.30881   -1.000
 4072.00    0.97147   1.30929   -1.000
 4073.00    1.03147   1.30935   -1.000
 4074.00    1.09993   1.30890   -1.000
 4075.00    1.10539   1.30773   -1.000
 4076.00    1.10387   1.30606   -1.000
 4077.00    1.09410   1.30363   -1.000
 4078.00    1.08373   1.30017   -1.000
 4079.00    1.07492   1.29629   -1.000
 4080.00    1.06616   1.29123   -1.000
 4081.00    1.06246   1.28549   -1.000
 4082.00    1.06004   1.27842   -1.000
 4083.00    1.10503   1.26972   -1.000
 4084.00    1.14513   1.25971   -1.000
 4085.00    1.10461   1.24717   -1.000
 4086.00    1.06494   1.23210   -1.000
 4087.00    1.03398   1.21403   -1.000
 4088.00    1.00320   1.19269   -1.000
 4089.00    0.97381   1.16869   -1.000
 4090.00    0.95434   1.14225   -1.000
 4091.00    0.99051   1.11515   -1.000
 4092.00    1.02336   1.08965    0.000
 4093.00    1.04135   1.06732    0.000
 4094.00    1.05318   1.05035    0.000
 4095.00    1.04233   1.03984    0.000
 4096.00    1.03051   1.03771    0.000
 4097.00    1.01564   1.04494    0.000
 4098.00    1.00880   1.05997    0.000
 4099.00    1.02295   1.08128    0.000
 4100.00    1.02809   1.10649    0.000
 4101.00    1.01303   1.13372    0.000
 4102.00    1.00566   1.16133    0.000
 4103.00    1.01325   1.18750    0.000
 4104.00    1.02515   1.21068    0.000
 4105.00    1.04434   1.23057    0.000
 4106.00    1.05380   1.24716    0.000
 4107.00    1.04877   1.26036    0.000
 4108.00    1.03800   1.27093    0.000
 4109.00    1.01974   1.27869    0.000
 4110.00    1.03392   1.28461    0.000
 4111.00    1.08545   1.28982    0.000
 4112.00    1.10948   1.29385    0.000
 4113.00    1.10561   1.29746   -1.000
 4114.00    1.11433   1.30059   -1.000
 4115.00    1.13431   1.30352   -1.000
 4116.00    1.12803   1.30726   -1.000
 4117.00    1.10104   1.31074   -1.000
 4118.00    1.08680   1.31408   -1.000
 4119.00    1.08143   1.31731   -1.000
 4120.00    1.08797   1.31991   -1.000
 4121.00    1.10176   1.32262   -1.000
 4122.00    1.10168   1.32475   -1.000
 4123.00    1.09422   1.32660   -1.000
 4124.00    1.12246   1.32813   -1.000
 4125.00    1.16714   1.32924   -1.000
 4126.00    1.16488   1.33024   -1.000
 4127.00    1.14397   1.33088   -1.000
 4128.00    1.11910   1.33122   -1.000
 4129.00    1.09290   1.33122   -1.000
 4130.00    1.07297   1.33060   -1.000
 4131.00    1.05483   1.32948   -1.000
 4132.00    1.04214   1.32759   -1.000
 4133.00    1.03075   1.32543   -1.000
 4134.00    1.01429   1.32356   -1.000
 4135.00    0.99687   1.32157   -1.000
 4136.00    1.00855   1.31998   -1.000
 4137.00    1.02449   1.31873   -1.000
 4138.00    1.07295   1.31848   -1.000
 4139.00    1.12487   1.31999   -1.000
 4140.00    1.08733   1.32208   -1.000
 4141.00    1.04359   1.32472   -1.000
 4142.00    1.06625   1.32766   -1.000
 4143.00    1.09121   1.33060   -1.000
 4144.00    1.09876   1.33374   -1.000
 4145.00    1.10571   1.33646   -1.000
 4146.00    1.09393   1.33876   -1.000
 4147.00    1.08744   1.34064   -1.000
 4148.00    1.16268   1.34217   -1.000
 4149.00    1.22431   1.34347   -1.000
 4150.00    1.15180   1.34446   -1.000
 4151.00    1.08341   1.34533   -1.000
 4152.00    1.04432   1.34599   -1.000
 4153.00    1.00852   1.34664   -1.000
 4154.00    0.99071   1.34706   -1.000
 4155.00    0.96765   1.34741   -1.000
 4156.00    0.92164   1.34758   -1.000
 4157.00    0.89800   1.34763   -1.000
 4158.00    0.95484   1.34768   -1.000
 4159.00    1.10941   1.34765    1.126
 4160.00    1.55892   1.34767    0.224
 4161.00    1.86117   1.34762    0.142
 4162.00    1.78525   1.34764    0.143
 4163.00    1.73449   1.34769    0.142
 4164.00    1.73930   1.34813    0.141
 4165.00    1.74651   1.34861    0.140
 4166.00    1.75830   1.34912    0.141
 4167.00    1.79479   1.34975    0.143
 4168.00    1.87256   1.35035    0.149
 4169.00    1.91195   1.35105    0.151
 4170.00    1.89509   1.35165    0.147
 4171.00    1.85499   1.35221    0.147
 4172.00    1.78495   1.35265    0.150
 4173.00    1.73924   1.35297    0.153
 4174.00    1.72113   1.35318    0.158
 4175.00    1.76098   1.35327    0.158
 4176.00    1.85885   1.35323    0.154
 4177.00    1.86931   1.35308    0.151
 4178.00    1.80262   1.35283    0.148
 4179.00    1.75750   1.35232    0.146
 4180.00    1.72916   1.35179    0.145
 4181.00    1.73313   1.35090    0.142
 4182.00    1.75921   1.34989    0.140
 4183.00    1.78494   1.34833    0.139
 4184.00    1.81047   1.34610    0.141
 4185.00    1.85074   1.34340    0.142
 4186.00    1.89872   1.33961    0.145
 4187.00    1.89851   1.33521    0.142
 4188.00    1.87644   1.33007    0.138
 4189.00    1.85994   1.32460    0.138
 4190.00    1.84560   1.31940    0.139
 4191.00    1.79140   1.31449    0.139
 4192.00    1.72396   1.31074    0.138
 4193.00    1.75309   1.30828    0.138
 4194.00    1.80912   1.30799    0.137
 4195.00    1.83710   1.31018    0.136
 4196.00    1.85864   1.31405    0.135
 4197.00    1.86109   1.31914    0.136
 4198.00    1.86005   1.32498    0.138
 4199.00    1.87877   1.33121    0.137
 4200.00    1.90029   1.33745    0.135
 4201.00    1.79865   1.34321    0.132
 4202.00    1.68446   1.34819    0.128
 4203.00    1.64191   1.35229    0.127
 4204.00    1.60402   1.35559    0.125
 4205.00    1.65825   1.35813    0.126
 4206.00    1.71519   1.36016    0.127
 4207.00    1.70142   1.36176    0.129
 4208.00    1.69021   1.36318    0.130
 4209.00    1.75385   1.36431    0.129
 4210.00    1.81612   1.36523    0.129
 4211.00    1.85817   1.36614    0.128
 4212.00    1.89914   1.36685    0.128
 4213.00    1.92979   1.36760    0.129
 4214.00    1.94442   1.36815    0.130
 4215.00    1.84890   1.36867    0.126
 4216.00    1.76730   1.36912    0.122
 4217.00    1.75965   1.36950    0.122
 4218.00    1.75798   1.36991    0.122
 4219.00    1.78190   1.37021    0.123
 4220.00    1.79361   1.37055    0.124
 4221.00    1.76230   1.37086    0.124
 4222.00    1.73432   1.37117    0.124
 4223.00    1.71625   1.37154    0.125
 4224.00    1.70606   1.37180    0.126
 4225.00    1.71579   1.37213    0.125
 4226.00    1.71615   1.37240    0.124
 4227.00    1.69615   1.37270    0.121
 4228.00    1.67858   1.37301    0.120
 4229.00    1.66557   1.37330    0.120
 4230.00    1.65831   1.37365    0.119
 4231.00    1.66051   1.37395    0.118
 4232.00    1.63808   1.37434    0.117
 4233.00    1.58012   1.37467    0.118
 4234.00    1.54067   1.37507    0.118
 4235.00    1.52474   1.37543    0.118
 4236.00    1.51331   1.37582    0.116
 4237.00    1.50692   1.37624    0.114
 4238.00    1.50566   1.37661    0.114
 4239.00    1.50949   1.37698    0.114
 4240.00    1.54559   1.37730    0.115
 4241.00    1.60979   1.37766    0.116
 4242.00    1.61735   1.37798    0.116
 4243.00    1.58147   1.37833    0.116
 4244.00    1.64068   1.37862    0.118
 4245.00    1.76397   1.37892    0.123
 4246.00    1.77949   1.37922    0.125
 4247.00    1.73140   1.37953    0.126
 4248.00    1.71601   1.37987    0.129
 4249.00    1.71745   1.38023    0.134
 4250.00    1.76269   1.38054    0.134
 4251.00    1.82746   1.38081    0.133
 4252.00    1.79746   1.38097    0.131
 4253.00    1.73113   1.38110    0.129
 4254.00    1.77690   1.38099    0.126
 4255.00    1.85921   1.38098    0.124
 4256.00    1.80024   1.38073    0.124
 4257.00    1.70270   1.38052    0.124
 4258.00    1.74439   1.38022    0.126
 4259.00    1.81729   1.37988    0.127
 4260.00    1.83242   1.37991    0.126
 4261.00    1.83721   1.37989    0.124
 4262.00    1.82474   1.38030    0.125
 4263.00    1.80991   1.38084    0.126
 4264.00    1.72969   1.38140    0.124
 4265.00    1.64308   1.38209    0.122
 4266.00    1.63728   1.38269    0.122
 4267.00    1.63642   1.38342    0.123
 4268.00    1.56625   1.38406    0.121
 4269.00    1.49445   1.38463    0.120
 4270.00    1.46904   1.38517    0.118
 4271.00    1.44512   1.38567    0.117
 4272.00    1.46039   1.38617    0.118
 4273.00    1.47322   1.38661    0.119
 4274.00    1.45233   1.38704    0.119
 4275.00    1.44612   1.38742    0.119
 4276.00    1.57322   1.38781    0.121
 4277.00    1.68618   1.38821    0.123
 4278.00    1.70499   1.38862    0.122
 4279.00    1.72088   1.38906    0.121
 4280.00    1.72160   1.38945    0.121
 4281.00    1.72510   1.38988    0.122
 4282.00    1.74018   1.39026   -2.000
 4283.00    1.75358   1.39069   -2.000
 4284.00    1.76118   1.39110   -2.000
 4285.00    1.77415   1.39151   -2.000
 4286.00    1.80274   1.39187   -2.000
 4287.00    1.81211   1.39219   -2.000
 4288.00    1.77377   1.39248   -2.000
 4289.00    1.77180   1.39273   -2.000
 4290.00    1.84756   1.39295   -2.000
 4291.00    1.89222   1.39313   -2.000
 4292.00    1.87912   1.39322   -2.000
 4293.00    1.86463   1.39329   -2.000
 4294.00    1.84787   1.39330   -2.000
 4295.00    1.81838   1.39328   -2.000
 4296.00    1.77080   1.39326   -2.000
 4297.00    1.75480   1.39325   -2.000
 4298.00    1.77832   1.39324    0.118
 4299.00    1.80784   1.39320    0.118
 4300.00    1.84396   1.39318    0.120
 4301.00    1.83381   1.39310    0.119
 4302.00    1.77862   1.39298    0.118
 4303.00    1.71934   1.39279    0.118
 4304.00    1.65654   1.39250    0.120
 4305.00    1.68208   1.39209    0.121
 4306.00    1.77438   1.39156    0.120
 4307.00    1.83085   1.39094    0.120
 4308.00    1.86351   1.39017    0.120
 4309.00    1.82470   1.38929    0.119
 4310.00    1.74432   1.38833    0.117
 4311.00    1.73583   1.38720    0.115
 4312.00    1.76377   1.38592    0.114
 4313.00    1.78082   1.38449    0.112
 4314.00    1.79309   1.38274    0.111
 4315.00    1.79197   1.38064    0.111
 4316.00    1.78582   1.37800    0.111
 4317.00    1.81604   1.37470    0.112
 4318.00    1.85790   1.37058    0.113
 4319.00    1.87846   1.36540    0.113
 4320.00    1.89334   1.35891    0.113
 4321.00    1.90074   1.35070    0.113
 4322.00    1.90651   1.34043    0.114
 4323.00    1.91820   1.32767    0.116
 4324.00    1.93092   1.31208    0.117
 4325.00    1.88666   1.29344    0.116
 4326.00    1.83487   1.27192    0.115
 4327.00    1.83073   1.24772    0.113
 4328.00    1.83105   1.22152    0.112
 4329.00    1.88611   1.19437    0.112
 4330.00    1.94430   1.16780    0.000
 4331.00    1.93001   1.14366    0.000
 4332.00    1.91418   1.12375    0.000
 4333.00    1.91354   1.11136    0.000
 4334.00    1.91212   1.10763    0.000
 4335.00    1.89202   1.11173    0.000
 4336.00    1.87555   1.12323    0.000
 4337.00    1.90637   1.14113    0.000
 4338.00    1.93216   1.16404    0.000
 4339.00    1.91396   1.18999    0.000
 4340.00    1.89399   1.21759    0.000
 4341.00    1.86258   1.24508    0.000
 4342.00    1.82839   1.27085    0.000
 4343.00    1.78017   1.29400    0.000
 4344.00    1.75623   1.31418    0.000
 4345.00    1.83137   1.33144    0.000
 4346.00    1.88193   1.34585    0.000
 4347.00    1.84936   1.35796    0.000
 4348.00    1.84161   1.36790    0.000
 4349.00    1.90468   1.37621    0.000
 4350.00    1.94687   1.38310    0.000
 4351.00    1.93815   1.38884    0.115
 4352.00    1.94179   1.39366    0.114
 4353.00    1.97147   1.39766    0.114
 4354.00    1.98347   1.40108    0.114
 4355.00    1.96316   1.40395    0.112
 4356.00    1.91358   1.40640    0.110
 4357.00    1.81723   1.40851    0.110
 4358.00    1.77514   1.41034    0.109
 4359.00    1.80913   1.41196    0.109
 4360.00    1.83438   1.41348    0.109
 4361.00    1.84883   1.41486    0.110
 4362.00    1.86118   1.41615    0.111
 4363.00    1.87123   1.41737    0.112
 4364.00    1.86417   1.41849    0.112
 4365.00    1.84070   1.41956    0.111
 4366.00    1.85302   1.42050    0.111
 4367.00    1.89560   1.42135    0.113
 4368.00    1.90902   1.42202    0.114
 4369.00    1.90070   1.42246    0.115
 4370.00    1.91070   1.42261    0.115
 4371.00    1.93267   1.42234    0.115
 4372.00    1.89765   1.42168    0.115
 4373.00    1.82998   1.42053    0.115
 4374.00    1.79474   1.41880    0.114
 4375.00    1.77567   1.41653    0.112
 4376.00    1.82888   1.41389    0.113
 4377.00    1.91327   1.41082    0.114
 4378.00    1.91238   1.40781    0.115
 4379.00    1.87993   1.40520    0.115
 4380.00    1.86075   1.40337    0.116
 4381.00    1.84574   1.40295    0.117
 4382.00    1.80887   1.40369    0.115
 4383.00    1.76629   1.40545    0.113
 4384.00    1.74942   1.40829    0.113
 4385.00    1.73804   1.41181    0.114
 4386.00    1.72562   1.41582    0.113
 4387.00    1.71303   1.41994    0.111
 4388.00    1.78585   1.42418    0.111
 4389.00    1.86957   1.42806    0.111
 4390.00    1.83125   1.43132    0.109
 4391.00    1.78204   1.43404    0.108
 4392.00    1.81953   1.43618    0.109
 4393.00    1.86163   1.43789    0.110
 4394.00    1.87788   1.43925    0.109
 4395.00    1.89343   1.44033    0.108
 4396.00    1.89357   1.44122    0.109
 4397.00    1.89267   1.44195    0.109
 4398.00    1.86914   1.44256    0.110
 4399.00    1.84608   1.44305    0.111
 4400.00    1.82878   1.44345    0.111
 4401.00    1.81224   1.44374    0.111
 4402.00    1.80220   1.44395    0.110
 4403.00    1.79521   1.44410    0.110
 4404.00    1.80725   1.44411    0.111
 4405.00    1.81989   1.44417    0.111
 4406.00    1.83551   1.44417    0.111
 4407.00    1.84434   1.44428    0.111
 4408.00    1.82612   1.44449    0.111
 4409.00    1.82439   1.44487    0.111
 4410.00    1.87735   1.44537    0.109
 4411.00    1.90105   1.44606    0.108
 4412.00    1.84278   1.44686    0.108
 4413.00    1.80348   1.44775    0.108
 4414.00    1.80967   1.44869    0.108
 4415.00    1.81952   1.44964    0.108
 4416.00    1.83696   1.45056    0.109
 4417.00    1.84222   1.45137    0.110
 4418.00    1.82556   1.45211    0.110
 4419.00    1.82716   1.45269    0.110
 4420.00    1.85750   1.45315    0.109
 4421.00    1.86564   1.45347    0.108
 4422.00    1.84308   1.45365    0.106
 4423.00    1.85135   1.45371    0.106
 4424.00    1.89710   1.45366    0.108
 4425.00    1.90381   1.45348    0.109
 4426.00    1.86865   1.45324    0.108
 4427.00    1.87765   1.45281    0.109
 4428.00    1.92844   1.45254    0.110
 4429.00    1.94612   1.45238    0.110
 4430.00    1.93618   1.45227    0.108
 4431.00    1.91777   1.45235    0.108
 4432.00    1.89314   1.45261    0.108
 4433.00    1.85415   1.45320    0.107
 4434.00    1.80591   1.45388    0.107
 4435.00    1.82301   1.45484    0.108
 4436.00    1.87697   1.45580    0.110
 4437.00    1.86962   1.45693    0.110
 4438.00    1.83217   1.45809    0.110
 4439.00    1.85949   1.45921    0.111
 4440.00    1.91428   1.46025    0.112
 4441.00    1.94720   1.46119    0.112
 4442.00    1.97217   1.46209    0.112
 4443.00    1.93752   1.46286    0.110
 4444.00    1.88453   1.46363    0.108
 4445.00    1.90724   1.46425    0.108
 4446.00    1.94931   1.46486    0.109
 4447.00    1.94038   1.46538    0.109
 4448.00    1.92081   1.46583    0.109
 4449.00    1.86445   1.46615    0.108
 4450.00    1.80204   1.46628    0.107
 4451.00    1.78613   1.46617    0.106
 4452.00    1.77594   1.46569    0.104
 4453.00    1.77885   1.46473    0.103
 4454.00    1.78287   1.46310    0.102
 4455.00    1.76718   1.46070    0.103
 4456.00    1.75051   1.45732    0.105
 4457.00    1.74159   1.45293    0.105
 4458.00    1.73271   1.44748    0.104
 4459.00    1.71900   1.44097    0.103
 4460.00    1.70639   1.43410    0.102
 4461.00    1.71595   1.42695    0.000
 4462.00    1.72849   1.42089    0.000
 4463.00    1.77595   1.41651    0.000
 4464.00    1.81570   1.41369    0.000
 4465.00    1.79292   1.41305    0.000
 4466.00    1.78350   1.41455    0.000
 4467.00    1.85540   1.41823    0.000
 4468.00    1.91233   1.42345    0.000
 4469.00    1.89740   1.42986    0.000
 4470.00    1.88454   1.43664    0.000
 4471.00    1.87975   1.44364    0.000
 4472.00    1.87387   1.45055    0.000
 4473.00    1.86443   1.45657    0.000
 4474.00    1.85847   1.46153    0.000
 4475.00    1.86205   1.46579    0.000
 4476.00    1.84952   1.46918    0.000
 4477.00    1.79902   1.47210    0.000
 4478.00    1.77470   1.47454    0.000
 4479.00    1.80374   1.47659    0.000
 4480.00    1.80783   1.47839    0.000
 4481.00    1.76770   1.47993    0.000
 4482.00    1.74765   1.48134    0.100
 4483.00    1.75873   1.48243    0.101
 4484.00    1.78983   1.48342    0.101
 4485.00    1.84820   1.48422    0.102
 4486.00    1.87427   1.48493    0.102
 4487.00    1.86161   1.48558    0.101
 4488.00    1.87068   1.48614    0.101
 4489.00    1.90270   1.48669    0.102
 4490.00    1.88839   1.48719    0.102
 4491.00    1.83088   1.48770    0.101
 4492.00    1.80640   1.48817    0.101
 4493.00    1.80909   1.48864    0.100
 4494.00    1.82422   1.48909    0.100
 4495.00    1.84837   1.48954    0.101
 4496.00    1.86306   1.48996    0.102
 4497.00    1.87175   1.49037    0.103
 4498.00    1.86912   1.49073    0.103
 4499.00    1.86019   1.49105    0.102
 4500.00    1.85636   1.49134    0.102
 4501.00    1.85500   1.49160    0.102
 4502.00    1.88118   1.49183    0.102
 4503.00    1.91886   1.49202    0.102
 4504.00    1.91206   1.49227    0.102
 4505.00    1.88938   1.49250    0.102
 4506.00    1.88040   1.49279    0.101
 4507.00    1.87554   1.49312    0.101
 4508.00    1.83313   1.49351    0.099
 4509.00    1.78131   1.49396    0.097
 4510.00    1.82559   1.49443    0.099
 4511.00    1.88940   1.49494    0.101
 4512.00    1.89851   1.49542    0.101
 4513.00    1.89889   1.49591    0.101
 4514.00    1.86014   1.49632    0.100
 4515.00    1.81674   1.49671    0.100
 4516.00    1.83103   1.49698    0.100
 4517.00    1.84999   1.49715    0.100
 4518.00    1.87619   1.49722    0.100
 4519.00    1.90271   1.49711    0.100
 4520.00    1.84131   1.49683    0.100
 4521.00    1.78115   1.49623    0.099
 4522.00    1.83948   1.49529    0.100
 4523.00    1.89362   1.49382    0.100
 4524.00    1.86908   1.49172    0.100
 4525.00    1.84830   1.48878    0.099
 4526.00    1.86973   1.48488    0.100
 4527.00    1.88827   1.47991    0.100
 4528.00    1.88422   1.47397    0.099
 4529.00    1.87837   1.46729    0.098
 4530.00    1.86187   1.46031    0.099
 4531.00    1.84413   1.45355    0.099
 4532.00    1.82059   1.44746    0.100
 4533.00    1.80591   1.44268    0.100
 4534.00    1.82511   1.43970    0.100
 4535.00    1.83375   1.43891    0.100
 4536.00    1.80872   1.44041    0.100
 4537.00    1.79664   1.44408    0.100
 4538.00    1.81957   1.44954    0.099
 4539.00    1.82346   1.45632    0.099
 4540.00    1.78323   1.46376    0.099
 4541.00    1.77213   1.47148    0.099
 4542.00    1.81942   1.47899    0.099
 4543.00    1.84960   1.48574    0.099
 4544.00    1.84992   1.49150    0.099
 4545.00    1.84077   1.49633    0.100
 4546.00    1.81714   1.50027    0.099
 4547.00    1.80881   1.50347    0.099
 4548.00    1.82104   1.50611    0.099
 4549.00    1.83003   1.50826    0.099
 4550.00    1.83520   1.51011    0.000
 4551.00    1.84236   1.51159    0.000
 4552.00    1.85159   1.51290    0.000
 4553.00    1.83755   1.51396    0.000
 4554.00    1.80210   1.51484    0.000
 4555.00    1.80024   1.51550    0.000
 4556.00    1.82561   1.51604    0.000
 4557.00    1.83552   1.51644    0.000
 4558.00    1.83438   1.51675    0.000
 4559.00    1.83552   1.51707    0.000
 4560.00    1.83808   1.51733    0.000
 4561.00    1.83489   1.51769    0.000
 4562.00    1.82856   1.51808    0.000
 4563.00    1.78358   1.51860    0.000
 4564.00    1.72022   1.51917    0.000
 4565.00    1.76280   1.51985    0.000
 4566.00    1.84881   1.52057    0.000
 4567.00    1.84160   1.52132    0.000
 4568.00    1.80171   1.52212    0.000
 4569.00    1.80331   1.52289    0.000
 4570.00    1.81716   1.52365    0.000
 4571.00    1.84329   1.52432    0.000
 4572.00    1.87244   1.52498    0.000
 4573.00    1.83533   1.52553    0.000
 4574.00    1.78508   1.52603    0.000
 4575.00    1.79494   1.52648    0.000
 4576.00    1.81410   1.52683    0.000
 4577.00    1.81461   1.52713    0.000
 4578.00    1.81298   1.52737    0.000
 4579.00    1.84939   1.52758    0.000
 4580.00    1.88872   1.52776    0.000
 4581.00    1.87197   1.52793    0.000
 4582.00    1.85289   1.52814    0.000
 4583.00    1.85896   1.52835    0.000
 4584.00    1.86443   1.52868    0.000
 4585.00    1.83494   1.52901    0.000
 4586.00    1.80898   1.52947    0.000
 4587.00    1.84488   1.52994    0.000
 4588.00    1.87596   1.53054    0.000
 4589.00    1.85541   1.53113    0.000
 4590.00    1.83886   1.53176    0.000
 4591.00    1.85252   1.53244    0.000
 4592.00    1.85104   1.53308    0.000
 4593.00    1.76256   1.53374    0.000
 4594.00    1.70021   1.53430    0.000
 4595.00    1.75728   1.53491    0.000
 4596.00    1.80227   1.53543    0.000
 4597.00    1.80208   1.53601    0.000
 4598.00    1.80947   1.53649    0.000
 4599.00    1.84055   1.53701    0.000
 4600.00    1.84930   1.53750    0.000
 4601.00    1.79881   1.53799    0.000
 4602.00    1.77227   1.53849    0.000
 4603.00    1.80031   1.53895    0.000
 4604.00    1.82847   1.53946    0.000
 4605.00    1.85689   1.53990    0.000
 4606.00    1.86988   1.54036    0.000
 4607.00    1.85635   1.54078    0.000
 4608.00    1.86332   1.54121    0.000
 4609.00    1.90116   1.54161    0.000
 4610.00    1.89569   1.54203    0.000
 4611.00    1.83292   1.54246    0.000
 4612.00    1.80250   1.54291    0.000
 4613.00    1.80977   1.54337    0.000
 4614.00    1.82148   1.54385    0.000
 4615.00    1.83777   1.54432    0.000
 4616.00    1.85545   1.54477    0.000
 4617.00    1.87441   1.54516    0.000
 4618.00    1.87457   1.54549    0.000
 4619.00    1.85972   1.54576    0.000
 4620.00    1.85499   1.54593    0.000
 4621.00    1.85738   1.54608    0.000
 4622.00    1.86280   1.54617    0.000
 4623.00    1.87010   1.54633    0.000
 4624.00    1.87574   1.54646    0.000
 4625.00    1.88049   1.54675    0.000
 4626.00    1.85358   1.54703    0.000
 4627.00    1.81184   1.54746    0.000
 4628.00    1.81444   1.54781    0.000
 4629.00    1.83490   1.54825    0.000
 4630.00    1.85724   1.54850    0.000
 4631.00    1.88023   1.54877    0.000
 4632.00    1.85694   1.54879    0.000
 4633.00    1.82025   1.54873    0.000
 4634.00    1.81837   1.54835    0.000
 4635.00    1.82483   1.54789    0.000
 4636.00    1.81896   1.54722    0.000
 4637.00    1.81072   1.54649    0.000
 4638.00    1.74027   1.54574    0.000
 4639.00    1.66048   1.54510    0.000
 4640.00    1.73826   1.54465    0.000
 4641.00    1.83338   1.54447    0.000
 4642.00    1.86171   1.54473    0.000
 4643.00    1.88519   1.54537    0.000
 4644.00    1.86499   1.54644    0.000
 4645.00    1.84315   1.54782    0.000
 4646.00    1.85492   1.54950    0.000
 4647.00    1.86682   1.55132    0.000
 4648.00    1.87666   1.55321    0.000
 4649.00    1.88326   1.55492    0.000
 4650.00    1.83686   1.55652    0.000
 4651.00    1.79775   1.55785    0.000
 4652.00    1.83321   1.55896    0.000
 4653.00    1.85957   1.55976    0.000
 4654.00    1.81930   1.56041    0.000
 4655.00    1.78751   1.56090    0.000
 4656.00    1.80305   1.56135    0.000
 4657.00    1.82078   1.56175    0.000
 4658.00    1.84824   1.56218    0.000
 4659.00    1.86835   1.56262    0.000
 4660.00    1.86158   1.56306    0.000
 4661.00    1.85962   1.56347    0.000
 4662.00    1.87241   1.56378    0.000
 4663.00    1.86803   1.56394    0.000
 4664.00    1.81886   1.56379    0.000
 4665.00    1.79537   1.56330    0.000
 4666.00    1.82943   1.56223    0.000
 4667.00    1.83795   1.56049    0.000
 4668.00    1.79687   1.55780    0.000
 4669.00    1.77171   1.55409    0.000
 4670.00    1.77350   1.54910    0.000
 4671.00    1.78492   1.54286    0.000
 4672.00    1.81062   1.53537    0.000
 4673.00    1.82015   1.52697    0.000
 4674.00    1.80859   1.51804    0.000
 4675.00    1.80840   1.50928    0.000
 4676.00    1.82128   1.50134    0.000
 4677.00    1.83660   1.49521    0.000
 4678.00    1.85439   1.49129    0.000
 4679.00    1.85159   1.49040    0.000
 4680.00    1.83038   1.49232    0.000
 4681.00    1.81542   1.49732    0.000
 4682.00    1.80538   1.50444    0.000
 4683.00    1.79824   1.51355    0.000
 4684.00    1.79311   1.52312    0.000
 4685.00    1.77980   1.53329    0.000
 4686.00    1.76151   1.54289    0.000
 4687.00    1.77550   1.55165    0.000
 4688.00    1.80660   1.55856    0.000
 4689.00    1.79642   1.56441    0.000
 4690.00    1.76723   1.56873    0.000
 4691.00    1.73719   1.57209    0.000
 4692.00    1.70680   1.57448    0.000
 4693.00    1.72498   1.57617    0.000
 4694.00    1.75956   1.57732    0.000
 4695.00    1.77711   1.57799    0.000
 4696.00    1.78982   1.57834    0.000
 4697.00    1.78911   1.57825    0.000
 4698.00    1.78525   1.57795    0.000
 4699.00    1.73311   1.57717    0.000
 4700.00    1.67189   1.57633    0.000
 4701.00    1.73028   1.57499    0.000
 4702.00    1.80606   1.57393    0.000
 4703.00    1.80876   1.57247    0.000
 4704.00    1.80373   1.57183    0.000
 4705.00    1.78645   1.57092    0.000
 4706.00    1.76833   1.57139    0.000
 4707.00    1.77778   1.57154    0.000
 4708.00    1.78816   1.57334    0.000
 4709.00    1.80839   1.57462    0.000
 4710.00    1.82638   1.57742    0.000
 4711.00    1.77148   1.57935    0.000
 4712.00    1.72208   1.58230    0.000
 4713.00    1.75712   1.58438    0.000
 4714.00    1.78581   1.58706    0.000
 4715.00    1.75225   1.58867    0.000
 4716.00    1.72549   1.59044    0.000
 4717.00    1.74685   1.59159    0.000
 4718.00    1.76169   1.59270    0.000
 4719.00    1.74104   1.59347    0.000
 4720.00    1.72604   1.59418    0.000
 4721.00    1.73562   1.59472    0.000
 4722.00    1.75178   1.59525    0.000
 4723.00    1.79157   1.59568    0.000
 4724.00    1.81708   1.59617    0.000
 4725.00    1.79962   1.59655    0.000
 4726.00    1.78459   1.59704    0.000
 4727.00    1.77580   1.59741    0.000
 4728.00    1.78161   1.59791    0.000
 4729.00    1.81959   1.59827    0.000
 4730.00    1.83709   1.59878    0.000
 4731.00    1.81545   1.59915    0.000
 4732.00    1.80958   1.59965    0.000
 4733.00    1.82999   1.60005    0.000
 4734.00    1.83366   1.60054    0.000
 4735.00    1.81286   1.60096    0.000
 4736.00    1.80387   1.60143    0.000
 4737.00    1.81007   1.60186    0.000
 4738.00    1.81151   1.60232    0.000
 4739.00    1.80758   1.60275    0.000
 4740.00    1.80679   1.60319    0.000
 4741.00    1.80914   1.60360    0.000
 4742.00    1.82538   1.60402    0.000
 4743.00    1.85388   1.60442    0.000
 4744.00    1.84748   1.60483    0.000
 4745.00    1.81401   1.60522    0.000
 4746.00    1.81230   1.60563    0.000
 4747.00    1.83228   1.60601    0.000
 4748.00    1.82540   1.60642    0.000
 4749.00    1.80247   1.60680    0.000
 4750.00    1.79182   1.60721    0.000
 4751.00    1.78758   1.60758    0.000
 4752.00    1.80831   1.60799    0.000
 4753.00    1.84035   1.60836    0.000
 4754.00    1.81234   1.60876    0.000
 4755.00    1.76094   1.60912    0.000
 4756.00    1.74626   1.60952    0.000
 4757.00    1.74375   1.60987    0.000
 4758.00    1.73276   1.61030    0.000
 4759.00    1.71942   1.61065    0.000
 4760.00    1.75540   1.61108    0.000
 4761.00    1.80266   1.61144    0.091
 4762.00    1.81475   1.61187    0.091
 4763.00    1.82040   1.61224    0.092
 4764.00    1.82221   1.61267    0.092
 4765.00    1.82347   1.61305    0.093
 4766.00    1.76481   1.61345    0.092
 4767.00    1.70006   1.61384    0.090
 4768.00    1.73164   1.61422    0.090
 4769.00    1.76943   1.61460    0.089
 4770.00    1.76588   1.61495    0.089
 4771.00    1.76112   1.61534    0.090
 4772.00    1.78401   1.61567    0.089
 4773.00    1.80642   1.61604    0.089
 4774.00    1.81515   1.61636    0.090
 4775.00    1.81950   1.61673    0.091
 4776.00    1.76055   1.61706    0.090
 4777.00    1.70322   1.61744    0.090
 4778.00    1.66108   1.61779    0.088
 4779.00    1.61277   1.61817    0.087
 4780.00    1.52229   1.61855    0.086
 4781.00    1.44658   1.61895    0.085
 4782.00    1.44906   1.61935    0.085
 4783.00    1.44872   1.61977    0.085
 4784.00    1.43638   1.62017    0.085
 4785.00    1.43122   1.62062    0.085
 4786.00    1.45126   1.62100    0.085
 4787.00    1.48268   1.62145    0.084
 4788.00    1.54771   1.62180    0.085
 4789.00    1.60789   1.62222    0.086
 4790.00    1.65585   1.62255    0.088
 4791.00    1.69718   1.62292    0.089
 4792.00    1.72413   1.62321    0.089
 4793.00    1.73954   1.62352    0.089
 4794.00    1.73325   1.62381    0.088
 4795.00    1.73654   1.62406    0.087
 4796.00    1.75558   1.62435    0.087
 4797.00    1.77044   1.62453    0.088
 4798.00    1.77928   1.62483    0.090
 4799.00    1.77860   1.62495    0.090
 4800.00    1.76587   1.62523    0.088
 4801.00    1.75535   1.62530    0.088
 4802.00    1.74728   1.62555    0.088
 4803.00    1.76095   1.62558    0.089
 4804.00    1.79603   1.62579    0.089
 4805.00    1.78352   1.62580    0.088
 4806.00    1.72967   1.62597    0.087
 4807.00    1.69711   1.62597    0.087
 4808.00    1.68084   1.62613    0.089
 4809.00    1.69642   1.62614    0.088
 4810.00    1.73342   1.62626    0.088
 4811.00    1.74297   1.62628    0.087
 4812.00    1.73634   1.62637    0.088
 4813.00    1.74681   1.62637    0.088
 4814.00    1.76606   1.62641    0.090
 4815.00    1.78761   1.62636    0.091
 4816.00    1.81018   1.62634    0.091
 4817.00    1.81191   1.62621    0.091
 4818.00    1.80567   1.62613    0.089
 4819.00    1.78728   1.62590    0.089
 4820.00    1.76494   1.62575    0.090
 4821.00    1.78754   1.62543    0.090
 4822.00    1.82237   1.62520    0.090
 4823.00    1.81031   1.62475    0.091
 4824.00    1.78777   1.62441    0.091
 4825.00    1.76707   1.62378    0.091
 4826.00    1.74671   1.62324    0.092
 4827.00    1.75585   1.62238    0.092
 4828.00    1.76902   1.62155    0.093
 4829.00    1.77667   1.62033    0.094
 4830.00    1.78379   1.61906    0.094
 4831.00    1.74912   1.61734    0.092
 4832.00    1.71191   1.61547    0.090
 4833.00    1.74288   1.61306    0.091
 4834.00    1.77544   1.61031    0.093
 4835.00    1.77063   1.60688    0.092
 4836.00    1.76785   1.60283    0.091
 4837.00    1.81796   1.59784    0.092
 4838.00    1.85738   1.59180    0.093
 4839.00    1.75097   1.58439    0.092
 4840.00    1.65790   1.57534    0.092
 4841.00    1.68540   1.56430    0.092
 4842.00    1.71702   1.55095    0.092
 4843.00    1.77598   1.53497    0.092
 4844.00    1.82426   1.51619    0.092
 4845.00    1.81740   1.49447    0.093
 4846.00    1.81191   1.47025    0.093
 4847.00    1.81215   1.44367    0.093
 4848.00    1.81294   1.41616    0.000
 4849.00    1.81560   1.38821    0.000
 4850.00    1.81927   1.36226    0.000
 4851.00    1.82588   1.33889    0.000
 4852.00    1.82094   1.32098    0.000
 4853.00    1.78741   1.30853    0.000
 4854.00    1.76185   1.30408    0.000
 4855.00    1.75328   1.30648    0.000
 4856.00    1.73260   1.31710    0.000
 4857.00    1.68947   1.33369    0.000
 4858.00    1.66979   1.35640    0.000
 4859.00    1.68807   1.38226    0.000
 4860.00    1.68631   1.41067    0.000
 4861.00    1.65609   1.43908    0.000
 4862.00    1.64282   1.46697    0.000
 4863.00    1.65070   1.49270    0.000
 4864.00    1.67177   1.51614    0.000
 4865.00    1.70736   1.53657    0.000
 4866.00    1.70499   1.55431    0.000
 4867.00    1.66577   1.56923    0.000
 4868.00    1.66592   1.58185    0.000
 4869.00    1.69981   1.59230    0.000
 4870.00    1.70958   1.60107    0.000
 4871.00    1.70115   1.60835    0.000
 4872.00    1.69560   1.61448    0.000
 4873.00    1.69194   1.61967    0.000
 4874.00    1.70680   1.62406    0.000
 4875.00    1.73240   1.62789    0.093
 4876.00    1.69676   1.63114    0.092
 4877.00    1.63014   1.63408    0.091
 4878.00    1.66839   1.63656    0.091
 4879.00    1.75255   1.63890    0.091
 4880.00    1.75228   1.64089    0.091
 4881.00    1.72028   1.64280    0.091
 4882.00    1.72765   1.64445    0.091
 4883.00    1.74758   1.64605    0.091
 4884.00    1.74120   1.64748    0.091
 4885.00    1.72779   1.64883    0.092
 4886.00    1.75839   1.65009    0.093
 4887.00    1.79859   1.65124    0.094
 4888.00    1.76204   1.65234    0.093
 4889.00    1.71217   1.65331    0.092
 4890.00    1.75502   1.65426    0.092
 4891.00    1.81009   1.65509    0.091
 4892.00    1.82414   1.65590    0.091
 4893.00    1.83438   1.65661    0.090
 4894.00    1.81407   1.65731    0.090
 4895.00    1.79203   1.65791    0.090
 4896.00    1.77689   1.65851    0.092
 4897.00    1.76191   1.65899    0.094
 4898.00    1.74669   1.65946    0.093
 4899.00    1.73129   1.65975    0.091
 4900.00    1.71130   1.65999    0.091
 4901.00    1.69597   1.65997    0.091
 4902.00    1.74073   1.65976    0.090
 4903.00    1.77861   1.65920    0.089
 4904.00    1.75661   1.65820    0.089
 4905.00    1.73743   1.65688    0.089
 4906.00    1.73640   1.65476    0.089
 4907.00    1.73533   1.65261    0.089
 4908.00    1.73404   1.64931    0.089
 4909.00    1.73680   1.64664    0.090
 4910.00    1.75602   1.64262    0.091
 4911.00    1.76751   1.64026    0.091
 4912.00    1.75290   1.63656    0.090
 4913.00    1.74411   1.63561    0.089
 4914.00    1.75184   1.63341    0.090
 4915.00    1.75386   1.63467    0.090
 4916.00    1.74199   1.63472    0.090
 4917.00    1.72861   1.63820    0.090
 4918.00    1.71206   1.64035    0.089
 4919.00    1.71501   1.64517    0.089
 4920.00    1.75354   1.64852    0.089
 4921.00    1.76626   1.65344    0.089
 4922.00    1.73782   1.65690    0.089
 4923.00    1.71811   1.66095    0.089
 4924.00    1.71062   1.66378    0.090
 4925.00    1.71192   1.66657    0.090
 4926.00    1.72407   1.66853    0.089
 4927.00    1.72778   1.67021    0.088
 4928.00    1.72233   1.67145    0.088
 4929.00    1.74095   1.67239    0.088
 4930.00    1.78262   1.67317    0.088
 4931.00    1.78518   1.67370    0.088
 4932.00    1.75471   1.67427    0.088
 4933.00    1.72749   1.67463    0.088
 4934.00    1.70269   1.67515    0.088
 4935.00    1.68650   1.67547    0.088
 4936.00    1.67592   1.67599    0.087
 4937.00    1.67409   1.67631    0.088
 4938.00    1.67724   1.67686    0.088
 4939.00    1.68833   1.67718    0.089
 4940.00    1.70337   1.67771    0.000
 4941.00    1.72679   1.67801    0.000
 4942.00    1.75383   1.67850    0.000
 4943.00    1.77047   1.67878    0.000
 4944.00    1.78327   1.67919    0.000
 4945.00    1.79911   1.67945    0.000
 4946.00    1.81590   1.67981    0.000
 4947.00    1.81398   1.68008    0.000
 4948.00    1.80717   1.68040    0.000
 4949.00    1.79123   1.68071    0.000
 4950.00    1.77335   1.68102    0.000
 4951.00    1.77061   1.68137    0.000
 4952.00    1.77043   1.68169    0.000
 4953.00    1.75797   1.68207    0.000
 4954.00    1.74394   1.68241    0.000
 4955.00    1.73663   1.68278    0.000
 4956.00    1.72991   1.68313    0.000
 4957.00    1.73674   1.68348    0.000
 4958.00    1.74427   1.68383    0.000
 4959.00    1.75718   1.68414    0.000
 4960.00    1.76964   1.68449    0.000
 4961.00    1.73883   1.68478    0.000
 4962.00    1.70984   1.68511    0.000
 4963.00    1.72054   1.68538    0.000
 4964.00    1.73068   1.68571    0.000
 4965.00    1.73409   1.68596    0.000
 4966.00    1.73795   1.68626    0.000
 4967.00    1.74557   1.68648    0.000
 4968.00    1.75007   1.68675    0.000
 4969.00    1.73508   1.68693    0.000
 4970.00    1.72064   1.68718    0.000
 4971.00    1.70884   1.68731    0.000
 4972.00    1.70340   1.68758    0.000
 4973.00    1.72328   1.68769    0.000
 4974.00    1.73900   1.68800    0.000
 4975.00    1.74099   1.68811    0.000
 4976.00    1.74192   1.68848    0.000
 4977.00    1.73989   1.68863    0.000
 4978.00    1.73204   1.68905    0.000
 4979.00    1.71027   1.68924    0.000
 4980.00    1.69763   1.68967    0.000
 4981.00    1.70385   1.68989    0.000
 4982.00    1.71308   1.69029    0.000
 4983.00    1.72773   1.69052    0.000
 4984.00    1.72217   1.69083    0.000
 4985.00    1.68486   1.69104    0.000
 4986.00    1.67397   1.69126    0.000
 4987.00    1.69951   1.69143    0.000
 4988.00    1.71746   1.69156    0.000
 4989.00    1.72621   1.69164    0.000
 4990.00    1.74331   1.69171    0.000
 4991.00    1.76933   1.69170    0.000
 4992.00    1.76851   1.69174    0.000
 4993.00    1.74233   1.69163    0.000
 4994.00    1.71406   1.69162    0.000
 4995.00    1.68407   1.69138    0.000
 4996.00    1.67111   1.69126    0.000
 4997.00    1.67063   1.69080    0.000
 4998.00    1.68437   1.69038    0.000
 4999.00    1.70725   1.68956    0.000
 5000.00    1.72774   1.68865    0.000
 5001.00    1.74687   1.68741    0.000
 5002.00    1.72601   1.68593    0.000
 5003.00    1.68557   1.68444    0.000
 5004.00    1.69192   1.68260    0.000
 5005.00    1.71810   1.68133    0.000
 5006.00    1.72117   1.67967    0.000
 5007.00    1.71586   1.67925    0.000
 5008.00    1.70932   1.67838    0.000
 5009.00    1.70241   1.67923    0.000
 5010.00    1.69410   1.67949    0.000
 5011.00    1.68545   1.68158    0.000
 5012.00    1.65030   1.68286    0.000
 5013.00    1.60965   1.68565    0.000
 5014.00    1.62304   1.68745    0.000
 5015.00    1.64529   1.69026    0.000
 5016.00    1.67980   1.69199    0.000
 5017.00    1.71581   1.69428    0.000
 5018.00    1.70313   1.69566    0.000
 5019.00    1.68633   1.69725    0.000
 5020.00    1.68752   1.69814    0.000
 5021.00    1.68960   1.69912    0.000
 5022.00    1.72303   1.69965    0.000
 5023.00    1.75580   1.70021    0.000
 5024.00    1.71826   1.70052    0.000
 5025.00    1.68248   1.70081    0.000
 5026.00    1.68216   1.70098    0.000
 5027.00    1.68182   1.70108    0.000
 5028.00    1.68140   1.70113    0.000
 5029.00    1.68267   1.70103    0.089
 5030.00    1.69757   1.70098    0.088
 5031.00    1.71329   1.70067    0.087
 5032.00    1.73396   1.70050    0.088
 5033.00    1.74520   1.70002    0.088
 5034.00    1.71132   1.69977    0.088
 5035.00    1.68763   1.69924    0.088
 5036.00    1.70362   1.69897    0.089
 5037.00    1.71060   1.69861    0.090
 5038.00    1.68836   1.69844    0.089
 5039.00    1.68352   1.69849    0.089
 5040.00    1.72647   1.69852    0.089
 5041.00    1.74667   1.69911    0.088
 5042.00    1.71336   1.69935    0.088
 5043.00    1.68693   1.70043    0.088
 5044.00    1.67445   1.70082    0.087
 5045.00    1.66716   1.70217    0.087
 5046.00    1.66906   1.70258    0.087
 5047.00    1.66976   1.70396    0.088
 5048.00    1.66857   1.70433    0.088
 5049.00    1.65841   1.70556    0.089
 5050.00    1.63604   1.70589    0.089
 5051.00    1.65270   1.70693    0.090
 5052.00    1.71608   1.70721    0.090
 5053.00    1.73515   1.70806    0.090
 5054.00    1.70747   1.70832    0.090
 5055.00    1.70869   1.70901    0.090
 5056.00    1.73681   1.70924    0.090
 5057.00    1.76232   1.70979    0.090
 5058.00    1.78568   1.71001    0.091
 5059.00    1.76165   1.71044    0.090
 5060.00    1.70337   1.71063    0.089
 5061.00    1.69833   1.71096    0.088
 5062.00    1.72706   1.71114    0.088
 5063.00    1.72624   1.71141    0.089
 5064.00    1.70905   1.71160    0.089
 5065.00    1.70480   1.71184    0.089
 5066.00    1.70679   1.71204    0.091
 5067.00    1.69915   1.71228    0.091
 5068.00    1.68749   1.71250    0.090
 5069.00    1.67732   1.71274    0.090
 5070.00    1.66768   1.71298    0.089
 5071.00    1.68328   1.71323    0.090
 5072.00    1.70646   1.71346    0.090
 5073.00    1.70704   1.71374    0.090
 5074.00    1.70197   1.71396    0.089
 5075.00    1.69706   1.71425    0.090
 5076.00    1.69217   1.71445    0.090
 5077.00    1.67005   1.71475    0.090
 5078.00    1.64518   1.71495    0.089
 5079.00    1.63067   1.71523    0.088
 5080.00    1.61738   1.71542    0.088
 5081.00    1.61848   1.71568    0.087
 5082.00    1.62075   1.71587    0.085
 5083.00    1.59513   1.71610    0.085
 5084.00    1.56825   1.71627    0.085
 5085.00    1.54337   1.71647    0.083
 5086.00    1.51918   1.71663    0.081
 5087.00    1.52841   1.71681    0.081
 5088.00    1.53801   1.71695    0.081
 5089.00    1.55456   1.71712    0.081
 5090.00    1.57347   1.71727    0.082
 5091.00    1.61859   1.71745    0.083
 5092.00    1.66018   1.71762    0.085
 5093.00    1.67424   1.71782    0.085
 5094.00    1.69044   1.71802    0.085
 5095.00    1.71926   1.71825    0.085
 5096.00    1.73785   1.71847    0.086
 5097.00    1.70865   1.71871    0.085
 5098.00    1.67517   1.71895    0.085
 5099.00    1.62539   1.71918    0.086
 5100.00    1.58700   1.71943    0.085
 5101.00    1.58485   1.71964    0.083
 5102.00    1.58375   1.71989    0.082
 5103.00    1.58549   1.72008    0.083
 5104.00    1.59603   1.72033    0.084
 5105.00    1.62689   1.72050    0.084
 5106.00    1.64946   1.72075    0.085
 5107.00    1.65545   1.72091    0.086
 5108.00    1.65770   1.72115    0.086
 5109.00    1.65346   1.72130    0.085
 5110.00    1.64997   1.72151    0.085
 5111.00    1.64765   1.72166    0.085
 5112.00    1.64650   1.72181    0.085
 5113.00    1.64691   1.72197    0.086
 5114.00    1.66512   1.72208    0.087
 5115.00    1.70434   1.72223    0.088
 5116.00    1.71967   1.72232    0.089
 5117.00    1.71014   1.72248    0.089
 5118.00    1.68594   1.72258    0.089
 5119.00    1.64829   1.72274    0.089
 5120.00    1.64197   1.72288    0.089
 5121.00    1.66101   1.72305    0.088
 5122.00    1.65658   1.72324    0.087
 5123.00    1.63544   1.72341    0.086
 5124.00    1.61347   1.72363    0.086
 5125.00    1.59098   1.72379    0.088
 5126.00    1.63074   1.72402    0.089
 5127.00    1.70447   1.72417    0.090
 5128.00    1.71686   1.72436    0.090
 5129.00    1.70014   1.72452    0.090
 5130.00    1.69129   1.72465    0.090
 5131.00    1.68566   1.72482    0.089
 5132.00    1.71261   1.72490    0.090
 5133.00    1.75096   1.72508    0.091
 5134.00    1.73693   1.72515    0.091
 5135.00    1.70745   1.72534    0.090
 5136.00    1.72521   1.72544    0.091
 5137.00    1.75451   1.72561    0.092
 5138.00    1.73772   1.72578    0.091
 5139.00    1.71182   1.72593    0.089
 5140.00    1.70080   1.72618    0.089
 5141.00    1.69207   1.72629    0.089
 5142.00    1.63096   1.72660    0.088
 5143.00    1.56389   1.72671    0.087
 5144.00    1.57512   1.72704    0.087
 5145.00    1.59233   1.72718    0.087
 5146.00    1.61974   1.72747    0.089
 5147.00    1.64758   1.72766    0.090
 5148.00    1.65339   1.72788    0.089
 5149.00    1.65851   1.72811    0.089
 5150.00    1.64181   1.72821    0.088
 5151.00    1.62835   1.72846    0.087
 5152.00    1.67094   1.72844    0.088
 5153.00    1.70899   1.72865    0.088
 5154.00    1.69874   1.72854    0.087
 5155.00    1.69153   1.72866    0.086
 5156.00    1.70722   1.72852    0.087
 5157.00    1.71806   1.72856    0.087
 5158.00    1.70105   1.72846    0.085
 5159.00    1.68961   1.72846    0.084
 5160.00    1.70354   1.72847    0.086
 5161.00    1.71285   1.72850    0.087
 5162.00    1.70493   1.72864    0.087
 5163.00    1.69711   1.72875    0.087
 5164.00    1.68960   1.72902    0.087
 5165.00    1.67690   1.72922    0.086
 5166.00    1.65048   1.72955    0.087
 5167.00    1.63352   1.72981    0.087
 5168.00    1.63805   1.73014    0.087
 5169.00    1.64593   1.73041    0.088
 5170.00    1.66038   1.73069    0.088
 5171.00    1.66088   1.73093    0.088
 5172.00    1.63741   1.73115    0.086
 5173.00    1.62836   1.73132    0.086
 5174.00    1.64096   1.73152    0.086
 5175.00    1.64764   1.73163    0.085
 5176.00    1.64649   1.73183    0.084
 5177.00    1.65634   1.73190    0.083
 5178.00    1.67899   1.73212    0.084
 5179.00    1.67066   1.73219    0.085
 5180.00    1.63054   1.73241    0.086
 5181.00    1.58861   1.73250    0.086
 5182.00    1.54503   1.73268    0.085
 5183.00    1.51992   1.73279    0.084
 5184.00    1.50956   1.73288    0.084
 5185.00    1.52075   1.73301    0.084
 5186.00    1.54707   1.73301    0.086
 5187.00    1.56601   1.73314    0.087
 5188.00    1.58040   1.73303    0.087
 5189.00    1.59602   1.73313    0.087
 5190.00    1.61230   1.73300    0.000
 5191.00    1.63508   1.73306    0.000
 5192.00    1.66089   1.73297    0.000
 5193.00    1.67970   1.73301    0.000
 5194.00    1.69569   1.73302    0.000
 5195.00    1.67032   1.73307    0.000
 5196.00    1.63075   1.73319    0.000
 5197.00    1.64688   1.73330    0.000
 5198.00    1.67911   1.73353    0.000
 5199.00    1.66845   1.73371    0.000
 5200.00    1.64754   1.73400    0.000
 5201.00    1.68394   1.73424    0.000
 5202.00    1.73136   1.73456    0.000
 5203.00    1.70806   1.73484    0.000
 5204.00    1.67420   1.73515    0.000
 5205.00    1.66191   1.73543    0.000
 5206.00    1.65200   1.73573    0.000
 5207.00    1.62217   1.73600    0.000
 5208.00    1.59090   1.73629    0.000
 5209.00    1.63899   1.73651    0.000
 5210.00    1.69005   1.73675    0.000
 5211.00    1.71294   1.73693    0.089
 5212.00    1.73410   1.73710    0.088
 5213.00    1.69741   1.73725    0.088
 5214.00    1.66390   1.73735    0.087
 5215.00    1.68181   1.73747    0.087
 5216.00    1.69875   1.73752    0.087
 5217.00    1.70582   1.73760    0.086
 5218.00    1.70857   1.73764    0.086
 5219.00    1.67988   1.73772    0.087
 5220.00    1.65864   1.73780    0.087
 5221.00    1.67894   1.73788    0.086
 5222.00    1.69735   1.73803    0.085
 5223.00    1.70734   1.73814    0.087
 5224.00    1.71368   1.73836    0.088
 5225.00    1.70665   1.73850    0.087
 5226.00    1.69797   1.73875    0.087
 5227.00    1.68425   1.73895    0.086
 5228.00    1.67677   1.73919    0.086
 5229.00    1.68550   1.73947    0.086
 5230.00    1.69947   1.73965    0.087
 5231.00    1.72515   1.73999    0.086
 5232.00    1.74082   1.74012    0.085
 5233.00    1.73711   1.74047    0.083
 5234.00    1.73433   1.74056    0.083
 5235.00    1.73316   1.74087    0.083
 5236.00    1.73595   1.74094    0.084
 5237.00    1.74460   1.74115    0.084
 5238.00    1.74195   1.74122    0.085
 5239.00    1.72459   1.74132    0.084
 5240.00    1.70486   1.74139    0.084
 5241.00    1.68239   1.74139    0.083
 5242.00    1.67231   1.74148    0.082
 5243.00    1.67476   1.74142    0.082
 5244.00    1.67089   1.74152    0.083
 5245.00    1.66137   1.74143    0.084
 5246.00    1.69493   1.74152    0.085
 5247.00    1.76236   1.74145    0.086
 5248.00    1.77068   1.74152    0.086
 5249.00    1.73813   1.74146    0.087
 5250.00    1.70615   1.74149    0.086
 5251.00    1.67451   1.74145    0.085
 5252.00    1.68122   1.74145    0.085
 5253.00    1.70821   1.74142    0.085
 5254.00    1.72419   1.74140    0.085
 5255.00    1.73511   1.74135    0.086
 5256.00    1.74580   1.74135    0.086
 5257.00    1.75640   1.74130    0.086
 5258.00    1.72863   1.74132    0.087
 5259.00    1.68792   1.74128    0.087
 5260.00    1.67911   1.74135    0.087
 5261.00    1.67933   1.74135    0.087
 5262.00    1.67617   1.74145    0.088
 5263.00    1.67222   1.74153    0.089
 5264.00    1.62557   1.74167    0.090
 5265.00    1.57092   1.74182    0.091
 5266.00    1.58914   1.74200    0.091
 5267.00    1.61792   1.74222    0.090
 5268.00    1.64269   1.74242    0.091
 5269.00    1.66703   1.74268    0.093
 5270.00    1.65204   1.74290    0.092
 5271.00    1.63437   1.74316    0.091
 5272.00    1.66614   1.74341    0.091
 5273.00    1.69957   1.74366    0.092
 5274.00    1.71331   1.74390    0.091
 5275.00    1.72608   1.74414    0.090
 5276.00    1.70857   1.74436    0.089
 5277.00    1.69402   1.74456    0.089
 5278.00    1.72461   1.74476    0.088
 5279.00    1.75035   1.74494    0.087
 5280.00    1.72883   1.74510    0.087
 5281.00    1.71004   1.74525    0.087
 5282.00    1.71040   1.74537    0.087
 5283.00    1.71074   1.74548    0.086
 5284.00    1.71093   1.74557    0.085
 5285.00    1.70696   1.74564    0.084
 5286.00    1.68489   1.74570    0.084
 5287.00    1.68056   1.74574    0.083
 5288.00    1.73972   1.74580    0.084
 5289.00    1.78173   1.74583    0.085
 5290.00    1.77224   1.74590    0.085
 5291.00    1.75347   1.74594    0.085
 5292.00    1.71099   1.74601    0.084
 5293.00    1.68773   1.74608    0.083
 5294.00    1.70672   1.74614    0.084
 5295.00    1.71829   1.74623    0.084
 5296.00    1.71569   1.74628    0.085
 5297.00    1.73063   1.74636    0.085
 5298.00    1.77476   1.74640    0.084
 5299.00    1.80048   1.74643    0.083
 5300.00    1.79933   1.74646    0.083
 5301.00    1.77799   1.74643    0.082
 5302.00    1.73072   1.74643    0.083
 5303.00    1.70638   1.74636    0.082
 5304.00    1.70797   1.74630    0.082
 5305.00    1.71427   1.74624    0.082
 5306.00    1.72527   1.74613    0.082
 5307.00    1.73456   1.74614    0.082
 5308.00    1.74235   1.74595    0.082
 5309.00    1.72732   1.74602    0.082
 5310.00    1.69461   1.74585    0.082
 5311.00    1.69734   1.74597    0.082
 5312.00    1.72422   1.74584    0.082
 5313.00    1.70890   1.74596    0.083
 5314.00    1.66837   1.74591    0.084
 5315.00    1.68152   1.74600    0.084
 5316.00    1.72265   1.74601    0.085
 5317.00    1.70399   1.74609    0.085
 5318.00    1.65833   1.74618    0.085
 5319.00    1.65350   1.74625    0.084
 5320.00    1.66455   1.74638    0.084
 5321.00    1.67060   1.74644    0.084
 5322.00    1.67501   1.74659    0.085
 5323.00    1.65431   1.74668    0.084
 5324.00    1.62665   1.74681    0.084
 5325.00    1.63852   1.74692    0.084
 5326.00    1.65942   1.74702    0.084
 5327.00    1.66507   1.74711    0.085
 5328.00    1.66794   1.74720    0.085
 5329.00    1.67344   1.74726    0.085
 5330.00    1.67931   1.74736    0.085
 5331.00    1.67839   1.74736    0.085
 5332.00    1.67679   1.74749    0.086
 5333.00    1.70415   1.74743    0.085
 5334.00    1.73336   1.74760    0.084
 5335.00    1.72753   1.74754    0.084
 5336.00    1.72063   1.74775    0.084
 5337.00    1.70633   1.74774    0.083
 5338.00    1.69278   1.74795    0.082
 5339.00    1.70060   1.74804    0.081
 5340.00    1.70778   1.74819    0.081
 5341.00    1.70579   1.74840    0.082
 5342.00    1.70344   1.74848    0.082
 5343.00    1.69782   1.74878    0.082
 5344.00    1.69456   1.74879    0.081
 5345.00    1.70731   1.74911    0.081
 5346.00    1.71518   1.74911    0.080
 5347.00    1.69723   1.74935    0.080
 5348.00    1.68074   1.74937    0.080
 5349.00    1.67042   1.74949    0.081
 5350.00    1.66385   1.74955    0.081
 5351.00    1.67045   1.74953    0.081
 5352.00    1.68245   1.74960    0.081
 5353.00    1.71036   1.74950    0.080
 5354.00    1.73126   1.74954    0.080
 5355.00    1.73456   1.74942    0.081
 5356.00    1.73036   1.74941    0.081
 5357.00    1.70994   1.74932    0.080
 5358.00    1.69751   1.74927    0.079
 5359.00    1.70010   1.74921    0.079
 5360.00    1.69950   1.74916    0.079
 5361.00    1.69367   1.74914    0.079
 5362.00    1.69322   1.74913    0.080
 5363.00    1.70052   1.74914    0.081
 5364.00    1.71146   1.74917    0.082
 5365.00    1.72700   1.74918    0.082
 5366.00    1.71991   1.74924    0.082
 5367.00    1.68760   1.74926    0.081
 5368.00    1.67798   1.74931   -2.000
 5369.00    1.69069   1.74935   -2.000
 5370.00    1.70496   1.74935   -2.000
 5371.00    1.72058   1.74940   -2.000
 5372.00    1.73087   1.74936   -2.000
 5373.00    1.73708   1.74940   -2.000
 5374.00    1.73270   1.74934   -2.000
 5375.00    1.72121   1.74932   -2.000
 5376.00    1.74842   1.74926   -2.000
 5377.00    1.79839   1.74917   -2.000
 5378.00    1.78114   1.74908   -2.000
 5379.00    1.72943   1.74896   -2.000
 5380.00    1.70965   1.74879   -2.000
 5381.00    1.70406   1.74861   -2.000
 5382.00    1.71778   1.74833   -2.000
 5383.00    1.73887   1.74802    0.083
 5384.00    1.72181   1.74759    0.083
 5385.00    1.69237   1.74699    0.082
 5386.00    1.69794   1.74628    0.082
 5387.00    1.71301   1.74521    0.082
 5388.00    1.69907   1.74395    0.081
 5389.00    1.67867   1.74205    0.080
 5390.00    1.70701   1.73978    0.079
 5391.00    1.74400   1.73667    0.079
 5392.00    1.73443   1.73301    0.079
 5393.00    1.71854   1.72841    0.079
 5394.00    1.72496   1.72299    0.080
 5395.00    1.73354   1.71677    0.081
 5396.00    1.71489   1.70966    0.080
 5397.00    1.69461   1.70228    0.079
 5398.00    1.69726   1.69417    0.079
 5399.00    1.70065   1.68655    0.079
 5400.00    1.72604   1.67881    0.078
 5401.00    1.74989   1.67255    0.077
 5402.00    1.73384   1.66818    0.077
 5403.00    1.71662   1.66642    0.078
 5404.00    1.68344   1.66668    0.078
 5405.00    1.65243   1.66860    0.077
 5406.00    1.64101   1.67258    0.078
 5407.00    1.63117   1.67785    0.078
 5408.00    1.63183   1.68454    0.079
 5409.00    1.63769   1.69180    0.079
 5410.00    1.67029   1.69953    0.079
 5411.00    1.70190   1.70719    0.078
 5412.00    1.72948   1.71454    0.078
 5413.00    1.74247   1.72129    0.077
 5414.00    1.70537   1.72720    0.078
 5415.00    1.67719   1.73207    0.079
 5416.00    1.67482   1.73600    0.078
 5417.00    1.67352   1.73904    0.078
 5418.00    1.67491   1.74144    0.079
 5419.00    1.68012   1.74319    0.079
 5420.00    1.69349   1.74459    0.078
 5421.00    1.70464   1.74560    0.078
 5422.00    1.71169   1.74635    0.079
 5423.00    1.71978   1.74699    0.080
 5424.00    1.72957   1.74738    0.080
 5425.00    1.74059   1.74787    0.080
 5426.00    1.75336   1.74811    0.081
 5427.00    1.75186   1.74847    0.081
 5428.00    1.73258   1.74868    0.081
 5429.00    1.73198   1.74892    0.081
 5430.00    1.75193   1.74912    0.080
 5431.00    1.74649   1.74923    0.080
 5432.00    1.71644   1.74943    0.081
 5433.00    1.72821   1.74941    0.081
 5434.00    1.77573   1.74955    0.081
 5435.00    1.78558   1.74950    0.081
 5436.00    1.76706   1.74949    0.080
 5437.00    1.73019   1.74948    0.079
 5438.00    1.68116   1.74937    0.078
 5439.00    1.67077   1.74935    0.077
 5440.00    1.68276   1.74920    0.077
 5441.00    1.70602   1.74915    0.077
 5442.00    1.73498   1.74900    0.077
 5443.00    1.73531   1.74892    0.077
 5444.00    1.72315   1.74884    0.076
 5445.00    1.71488   1.74878    0.076
 5446.00    1.70808   1.74881    0.076
 5447.00    1.71973   1.74878    0.077
 5448.00    1.73726   1.74885    0.077
 5449.00    1.73557   1.74887    0.077
 5450.00    1.72878   1.74894    0.076
 5451.00    1.71120   1.74898    0.076
 5452.00    1.69129   1.74903    0.075
 5453.00    1.67695   1.74907    0.075
 5454.00    1.66358   1.74908    0.075
 5455.00    1.68170   1.74912    0.076
 5456.00    1.70396   1.74908    0.077
 5457.00    1.71844   1.74910    0.076
 5458.00    1.73220   1.74906    0.076
 5459.00    1.73585   1.74903    0.076
 5460.00    1.73894   1.74901    0.077
 5461.00    1.73710   1.74893    0.077
 5462.00    1.73515   1.74895    0.078
 5463.00    1.73395   1.74882    0.077
 5464.00    1.73266   1.74885    0.077
 5465.00    1.72907   1.74876    0.077
 5466.00    1.72601   1.74877    0.078
 5467.00    1.72978   1.74874    0.078
 5468.00    1.73430   1.74872    0.078
 5469.00    1.74531   1.74876    0.077
 5470.00    1.75448   1.74873    0.077
 5471.00    1.75183   1.74881    0.078
 5472.00    1.74361   1.74877    0.079
 5473.00    1.70747   1.74887    0.078
 5474.00    1.67585   1.74884    0.078
 5475.00    1.66257   1.74891    0.080
 5476.00    1.65801   1.74891    0.081
 5477.00    1.68281   1.74895    0.081
 5478.00    1.70502   1.74895   -2.000
 5479.00    1.71987   1.74895   -2.000
 5480.00    1.73198   1.74896   -2.000
 5481.00    1.73744   1.74894   -2.000
 5482.00    1.73443   1.74893   -2.000
 5483.00    1.71367   1.74890   -2.000
 5484.00    1.69483   1.74886   -2.000
 5485.00    1.67948   1.74884   -2.000
 5486.00    1.65522   1.74878   -2.000
 5487.00    1.61675   1.74876   -2.000
 5488.00    1.58996   1.74868   -2.000
 5489.00    1.57950   1.74867   -2.000
 5490.00    1.58291   1.74856   -2.000
 5491.00    1.60336   1.74855   -2.000
 5492.00    1.63513   1.74843   -2.000
 5493.00    1.67917   1.74839   -2.000
 5494.00    1.70939   1.74830   -2.000
 5495.00    1.72639   1.74818   -2.000
 5496.00    1.73446   1.74820   -2.000
 5497.00    1.73500   1.74797   -2.000
 5498.00    1.72859   1.74810   -2.000
 5499.00    1.71703   1.74784   -2.000
 5500.00    1.70045   1.74800   -2.000
 5501.00    1.68060   1.74784   -2.000
 5502.00    1.67234   1.74791    0.073
 5503.00    1.67069   1.74791    0.073
 5504.00    1.68118   1.74785    0.073
 5505.00    1.69769   1.74799    0.073
 5506.00    1.71296   1.74784    0.074
 5507.00    1.72771   1.74802    0.075
 5508.00    1.72017   1.74786    0.075
 5509.00    1.70442   1.74797    0.075
 5510.00    1.68832   1.74785    0.075
 5511.00    1.67212   1.74785    0.076
 5512.00    1.66182   1.74778    0.075
 5513.00    1.65306   1.74768    0.075
 5514.00    1.65342   1.74765    0.075
 5515.00    1.65572   1.74749    0.075
 5516.00    1.68556   1.74744    0.076
 5517.00    1.72002   1.74729    0.077
 5518.00    1.70822   1.74722    0.077
 5519.00    1.69056   1.74710    0.077
 5520.00    1.68528   1.74705    0.077
 5521.00    1.68108   1.74697    0.076
 5522.00    1.66729   1.74694    0.077
 5523.00    1.65300   1.74691    0.077
 5524.00    1.65512   1.74686    0.076
 5525.00    1.65726   1.74687    0.075
 5526.00    1.63791   1.74682    0.075
 5527.00    1.62080   1.74683    0.074
 5528.00    1.65203   1.74681    0.075
 5529.00    1.68293   1.74682    0.075
 5530.00    1.70982   1.74681    0.076
 5531.00    1.73121   1.74681    0.076
 5532.00    1.70678   1.74679    0.075
 5533.00    1.68466   1.74676    0.074
 5534.00    1.67694   1.74674    0.074
 5535.00    1.67177   1.74670    0.074
 5536.00    1.67908   1.74668    0.074
 5537.00    1.68549   1.74663    0.074
 5538.00    1.68829   1.74660    0.073
 5539.00    1.69362   1.74655    0.082
 5540.00    1.70731   1.74649    0.193
 5541.00    1.71637   1.74647   -1.000
 5542.00    1.71254   1.74636   -1.000
 5543.00    1.70874   1.74638   -1.000
 5544.00    1.70501   1.74624   -1.000
 5545.00    1.70109   1.74626   -1.000
 5546.00    1.69677   1.74611   -1.000
 5547.00    1.69665   1.74609    0.419
 5548.00    1.70405   1.74600    0.111
 5549.00    1.71200   1.74590    0.076
 5550.00    1.72083   1.74585    0.075
 5551.00    1.72067   1.74571    0.074
 5552.00    1.70812   1.74566    0.074
 5553.00    1.69510   1.74550    0.074
 5554.00    1.68149   1.74545    0.074
 5555.00    1.68339   1.74530    0.074
 5556.00    1.70184   1.74521    0.074
 5557.00    1.70867   1.74511    0.074
 5558.00    1.70455   1.74501    0.074
 5559.00    1.70036   1.74495    0.074
 5560.00    1.69612   1.74487    0.074
 5561.00    1.69386   1.74478    0.075
 5562.00    1.69306   1.74472    0.075
 5563.00    1.69777   1.74466    0.074
 5564.00    1.70602   1.74460    0.074
 5565.00    1.69689   1.74454    0.074
 5566.00    1.67799   1.74449    0.075
 5567.00    1.66469   1.74442    0.075
 5568.00    1.65414   1.74437    0.074
 5569.00    1.65280   1.74421    0.074
 5570.00    1.65536   1.74412    0.073
 5571.00    1.67121   1.74387    0.074
 5572.00    1.69188   1.74372    0.075
 5573.00    1.69374   1.74344    0.074
 5574.00    1.68984   1.74305    0.073
 5575.00    1.68858   1.74274    0.073
 5576.00    1.68799   1.74210    0.074
 5577.00    1.69913   1.74174    0.074
 5578.00    1.71271   1.74104    0.073
 5579.00    1.70195   1.74066    0.073
 5580.00    1.68723   1.74015    0.072
 5581.00    1.68928   1.73959    0.072
 5582.00    1.69339   1.73950    0.073
 5583.00    1.70309   1.73870    0.073
 5584.00    1.71327   1.73878    0.072
 5585.00    1.68509   1.73835    0.072
 5586.00    1.65505   1.73902    0.071
 5587.00    1.66463   1.73905    0.071
 5588.00    1.67474   1.73938    0.072
 5589.00    1.68147   1.73981    0.072
 5590.00    1.68699   1.73996    0.073
 5591.00    1.66857   1.74050    0.073
 5592.00    1.65231   1.74064    0.072
 5593.00    1.66121   1.74112    0.074
 5594.00    1.67058   1.74131    0.076
 5595.00    1.68378   1.74155    0.076
 5596.00    1.69597   1.74175    0.076
 5597.00    1.70206   1.74176    0.076
 5598.00    1.70563   1.74184    0.076
 5599.00    1.69725   1.74184    0.076
 5600.00    1.68874   1.74183    0.076
 5601.00    1.67976   1.74183    0.077
 5602.00    1.67130   1.74174    0.077
 5603.00    1.66450   1.74174    0.076
 5604.00    1.65882   1.74164    0.075
 5605.00    1.65619   1.74156    0.074
 5606.00    1.65994   1.74152    0.074
 5607.00    1.67866   1.74137    0.074
 5608.00    1.69710   1.74137    0.074
 5609.00    1.71497   1.74121    0.074
 5610.00    1.72576   1.74122    0.075
 5611.00    1.72408   1.74110    0.080
 5612.00    1.71361   1.74104    0.083
 5613.00    1.68956   1.74100    0.085
 5614.00    1.66946   1.74088    0.085
 5615.00    1.65472   1.74086    0.084
 5616.00    1.64269   1.74073    0.080
 5617.00    1.63392   1.74070    0.074
 5618.00    1.63527   1.74059    0.072
 5619.00    1.64729   1.74051    0.071
 5620.00    1.65502   1.74044    0.071
 5621.00    1.65878   1.74030    0.070
 5622.00    1.66489   1.74022    0.070
 5623.00    1.67291   1.74007    0.070
 5624.00    1.66539   1.73990    0.070
 5625.00    1.64666   1.73976    0.068
 5626.00    1.63964   1.73955    0.068
 5627.00    1.64004   1.73944    0.068
 5628.00    1.65329   1.73922    0.068
 5629.00    1.67365   1.73905    0.069
 5630.00    1.68650   1.73890    0.069
 5631.00    1.69575   1.73863    0.070
 5632.00    1.68593   1.73855    0.070
 5633.00    1.66818   1.73831    0.070
 5634.00    1.66318   1.73830    0.069
 5635.00    1.66270   1.73815    0.069
 5636.00    1.68298   1.73809    0.069
 5637.00    1.70950   1.73804    0.070
 5638.00    1.70748   1.73789    0.070
 5639.00    1.69836   1.73794    0.070
 5640.00    1.69187   1.73779    0.070
 5641.00    1.68591   1.73782    0.071
 5642.00    1.68734   1.73773    0.071
 5643.00    1.68993   1.73768    0.070
 5644.00    1.68851   1.73759    0.070
 5645.00    1.68661   1.73746    0.071
 5646.00    1.68848   1.73737    0.071
 5647.00    1.69065   1.73721    0.071
 5648.00    1.69616   1.73706    0.071
 5649.00    1.70182   1.73691    0.070
 5650.00    1.70074   1.73670    0.071
 5651.00    1.69944   1.73654    0.072
 5652.00    1.69111   1.73635    0.072
 5653.00    1.68211   1.73618    0.072
 5654.00    1.66078   1.73606    0.072
 5655.00    1.63944   1.73587    0.072
 5656.00    1.61807   1.73581    0.071
 5657.00    1.60136   1.73562    0.071
 5658.00    1.62075   1.73556    0.070
 5659.00    1.63961   1.73543    0.070
 5660.00    1.65531   1.73535    0.069
 5661.00    1.66607   1.73526    0.069
 5662.00    1.65384   1.73518    0.069
 5663.00    1.64419   1.73509    0.070
 5664.00    1.64427   1.73495    0.070
 5665.00    1.64558   1.73484    0.070
 5666.00    1.65077   1.73467    0.069
 5667.00    1.65586   1.73459    0.069
 5668.00    1.66065   1.73438    0.069
 5669.00    1.65992   1.73434    0.068
 5670.00    1.64646   1.73412    0.068
 5671.00    1.64148   1.73403    0.068
 5672.00    1.65347   1.73388    0.068
 5673.00    1.66886   1.73377    0.069
 5674.00    1.69015   1.73371    0.070
 5675.00    1.69922   1.73358    0.070
 5676.00    1.68967   1.73356    0.070
 5677.00    1.68038   1.73337    0.071
 5678.00    1.67146   1.73331    0.072
 5679.00    1.66578   1.73315    0.072
 5680.00    1.66395   1.73301    0.072
 5681.00    1.65559   1.73286    0.072
 5682.00    1.64045   1.73262    0.071
 5683.00    1.64791   1.73251    0.071
 5684.00    1.67605   1.73226    0.071
 5685.00    1.69167   1.73214    0.072
 5686.00    1.69717   1.73199    0.072
 5687.00    1.69415   1.73176    0.071
 5688.00    1.68506   1.73169    0.070
 5689.00    1.67551   1.73148    0.070
 5690.00    1.66567   1.73149    0.070
 5691.00    1.67190   1.73144    0.070
 5692.00    1.68689   1.73143    0.070
 5693.00    1.69724   1.73146    0.070
 5694.00    1.70538   1.73137    0.070
 5695.00    1.70742   1.73138    0.070
 5696.00    1.70696   1.73135    0.070
 5697.00    1.70600   1.73130    0.071
 5698.00    1.70486   1.73130    0.071
 5699.00    1.69056   1.73123    0.070
 5700.00    1.67238   1.73117    0.070
 5701.00    1.66198   1.73113    0.070
 5702.00    1.65346   1.73097    0.069
 5703.00    1.65793   1.73098    0.069
 5704.00    1.66496   1.73081    0.068
 5705.00    1.66360   1.73077    0.069
 5706.00    1.66095   1.73069    0.069
 5707.00    1.67165   1.73053    0.069
 5708.00    1.68385   1.73055    0.070
 5709.00    1.68086   1.73028    0.070
 5710.00    1.67672   1.73033    0.070
 5711.00    1.67671   1.73009    0.070
 5712.00    1.67687   1.73006    0.069
 5713.00    1.68184   1.72993    0.069
 5714.00    1.68668   1.72976    0.069
 5715.00    1.68443   1.72976    0.069
 5716.00    1.68301   1.72948    0.070
 5717.00    1.69572   1.72955    0.070
 5718.00    1.70635   1.72927    0.070
 5719.00    1.69510   1.72928    0.070
 5720.00    1.68637   1.72908    0.069
 5721.00    1.69659   1.72894    0.070
 5722.00    1.70594   1.72887    0.070
 5723.00    1.71028   1.72860    0.071
 5724.00    1.71467   1.72856    0.071
 5725.00    1.71923   1.72824    0.071
 5726.00    1.72431   1.72807    0.071
 5727.00    1.73134   1.72784    0.071
 5728.00    1.73575   1.72761    0.071
 5729.00    1.73200   1.72753    0.070
 5730.00    1.72376   1.72724    0.070
 5731.00    1.70363   1.72713    0.070
 5732.00    1.69093   1.72692    0.070
 5733.00    1.69509   1.72673    0.068
 5734.00    1.69426   1.72670    0.067
 5735.00    1.68363   1.72651    0.068
 5736.00    1.68103   1.72662    0.068
 5737.00    1.69219   1.72642    0.068
 5738.00    1.70319   1.72643    0.068
 5739.00    1.71395   1.72633    0.068
 5740.00    1.72178   1.72622    0.000
 5741.00    1.72575   1.72625    0.000
 5742.00    1.72520   1.72604    0.000
 5743.00    1.71940   1.72612    0.000
 5744.00    1.71862   1.72589    0.000
 5745.00    1.72298   1.72589    0.000
 5746.00    1.72190   1.72574    0.000
 5747.00    1.71592   1.72561    0.000
 5748.00    1.71773   1.72559    0.000
 5749.00    1.72573   1.72535    0.000
 5750.00    1.73183   1.72538    0.000
 5751.00    1.73660   1.72516    0.000
 5752.00    1.73466   1.72510    0.000
 5753.00    1.72860   1.72500    0.000
 5754.00    1.71552   1.72480    0.000
 5755.00    1.69867   1.72477    0.000
 5756.00    1.69059   1.72453    0.000
 5757.00    1.68659   1.72449    0.000
 5758.00    1.68455   1.72430    0.000
 5759.00    1.68328   1.72413    0.000
 5760.00    1.69239   1.72407    0.000
 5761.00    1.70505   1.72379    0.000
 5762.00    1.71431   1.72371    0.000
 5763.00    1.72259   1.72346    0.000
 5764.00    1.70844   1.72332    0.000
 5765.00    1.68895   1.72316    0.000
 5766.00    1.71026   1.72289    0.000
 5767.00    1.73940   1.72281    0.000
 5768.00    1.74090   1.72251    0.000
 5769.00    1.73828   1.72237    0.000
 5770.00    1.72921   1.72219    0.000
 5771.00    1.71945   1.72194    0.000
 5772.00    1.73397   1.72186    0.000
 5773.00    1.75025   1.72157    0.000
 5774.00    1.74606   1.72149    0.000
 5775.00    1.74111   1.72127    0.000
 5776.00    1.74825   1.72111    0.000
 5777.00    1.75511   1.72100    0.000
 5778.00    1.75034   1.72071    0.000
 5779.00    1.74512   1.72066    0.000
 5780.00    1.73269   1.72032    0.000
 5781.00    1.72028   1.72019    0.000
 5782.00    1.70802   1.71982    0.000
 5783.00    1.69794   1.71955    0.000
 5784.00    1.70360   1.71922    0.000
 5785.00    1.70779   1.71878    0.000
 5786.00    1.70385   1.71855    0.000
 5787.00    1.70437   1.71782    0.000
 5788.00    1.72467   1.71748    0.000
 5789.00    1.74294   1.71681    0.000
 5790.00    1.75382   1.71663    0.000
 5791.00    1.75309   1.71625   -2.000
 5792.00    1.71695   1.71580   -2.000
 5793.00    1.68301   1.71569   -2.000
 5794.00    1.65477   1.71508   -2.000
 5795.00    1.63575   1.71499   -2.000
 5796.00    1.63728   1.71480   -2.000
 5797.00    1.64294   1.71494   -2.000
 5798.00    1.65656   1.71482   -2.000
 5799.00    1.67059   1.71463   -2.000
 5800.00    1.68530   1.71454   -2.000
 5801.00    1.69359   1.71473   -2.000
 5802.00    1.69238   1.71462   -2.000
 5803.00    1.69784   1.71489   -2.000
 5804.00    1.71196   1.71493   -2.000
 5805.00    1.71618   1.71490   -2.000
 5806.00    1.70904   1.71518   -2.000
 5807.00    1.70043   1.71526   -2.000
 5808.00    1.69033   1.71597   -2.000
 5809.00    1.68756   1.71603   -2.000
 5810.00    1.69131   1.71642   -2.000
 5811.00    1.68914   1.71661    0.000
 5812.00    1.68233   1.71698    0.000
 5813.00    1.68010   1.71729    0.000
 5814.00    1.68102   1.71757    0.000
 5815.00    1.68746   1.71775    0.000
 5816.00    1.69722   1.71777    0.000
 5817.00    1.69937   1.71791    0.000
 5818.00    1.69749   1.71769    0.000
 5819.00    1.69564   1.71784    0.000
 5820.00    1.69382   1.71767    0.000
 5821.00    1.70671   1.71748    0.000
 5822.00    1.72542   1.71717    0.000
 5823.00    1.72699   1.71674    0.000
 5824.00    1.72281   1.71663    0.000
 5825.00    1.72991   1.71624    0.000
 5826.00    1.74020   1.71600    0.000
 5827.00    1.73570   1.71573    0.000
 5828.00    1.72776   1.71537    0.000
 5829.00    1.72690   1.71518    0.000
 5830.00    1.72735   1.71485    0.000
 5831.00    1.73217   1.71466    0.000
 5832.00    1.73764   1.71444    0.000
 5833.00    1.73087   1.71418    0.000
 5834.00    1.72283   1.71401    0.000
 5835.00    1.69584   1.71376    0.000
 5836.00    1.66757   1.71357    0.000
 5837.00    1.66599   1.71335    0.000
 5838.00    1.66528   1.71314    0.000
 5839.00    1.68166   1.71294    0.000
 5840.00    1.69775   1.71272    0.000
 5841.00    1.70478   1.71250    0.000
 5842.00    1.71184   1.71232    0.000
 5843.00    1.71954   1.71208    0.000
 5844.00    1.72623   1.71190    0.000
 5845.00    1.72325   1.71165    0.000
 5846.00    1.72052   1.71140    0.000
 5847.00    1.71955   1.71111    0.000
 5848.00    1.71813   1.71080    0.000
 5849.00    1.71428   1.71034    0.000
 5850.00    1.70682   1.70984    0.000
 5851.00    1.68373   1.70902    0.000
 5852.00    1.66499   1.70789    0.000
 5853.00    1.66177   1.70681    0.000
 5854.00    1.65781   1.70466    0.000
 5855.00    1.65168   1.70351    0.000
 5856.00    1.64780   1.69975    0.000
 5857.00    1.64963   1.69595    0.000
 5858.00    1.65891   1.69200    0.000
 5859.00    1.68454   1.68662    0.000
 5860.00    1.70122   1.68465    0.000
 5861.00    1.70086   1.67673    0.000
 5862.00    1.70325   1.67315    0.000
 5863.00    1.71022   1.66645    0.000
 5864.00    1.70941   1.66018    0.000
 5865.00    1.69726   1.65980    0.000
 5866.00    1.69021   1.65430    0.000
 5867.00    1.68969   1.65889    0.000
 5868.00    1.69002   1.65471    0.000
 5869.00    1.69133   1.65450    0.000
 5870.00    1.69273   1.65815    0.000
 5871.00    1.69423   1.66022    0.000
 5872.00    1.69033   1.67027    0.000
 5873.00    1.68167   1.67119    0.000
 5874.00    1.68532   1.67722    0.000
 5875.00    1.69849   1.68109    0.000
 5876.00    1.69714   1.68455    0.000
 5877.00    1.68590   1.68998    0.000
 5878.00    1.68067   1.69211    0.000
 5879.00    1.67902   1.69593    0.000
 5880.00    1.68031   1.69730    0.000
 5881.00    1.68312   1.69887    0.000
 5882.00    1.68832   1.70015    0.000
 5883.00    1.69460   1.70083    0.000
 5884.00    1.69015   1.70162    0.000
 5885.00    1.68154   1.70185    0.000
 5886.00    1.66783   1.70229    0.000
 5887.00    1.65244   1.70247    0.000
 5888.00    1.63502   1.70267    0.000
 5889.00    1.61705   1.70273    0.000
 5890.00    1.59464   1.70278    0.000
 5891.00    1.57124   1.70291    0.000
 5892.00    1.56019   1.70302    0.000
 5893.00    1.55140   1.70307    0.000
 5894.00    1.56614   1.70316    0.000
 5895.00    1.58416   1.70310    0.000
 5896.00    1.58822   1.70313    0.000
 5897.00    1.59087   1.70312    0.000
 5898.00    1.59490   1.70302    0.000
 5899.00    1.59901   1.70308    0.000
 5900.00    1.61905   1.70287    0.000
 5901.00    1.63951   1.70286    0.067
 5902.00    1.64284   1.70272    0.067
 5903.00    1.64575   1.70254    0.067
 5904.00    1.63697   1.70251    0.066
 5905.00    1.62946   1.70226    0.065
 5906.00    1.64024   1.70222    0.065
 5907.00    1.65094   1.70201    0.065
 5908.00    1.66090   1.70183    0.065
 5909.00    1.66772   1.70176    0.065
 5910.00    1.65323   1.70151    0.064
 5911.00    1.64301   1.70148    0.063
 5912.00    1.65523   1.70122    0.064
 5913.00    1.66579   1.70110    0.064
 5914.00    1.66935   1.70096    0.063
 5915.00    1.67178   1.70074    0.063
 5916.00    1.67026   1.70066    0.063
 5917.00    1.66996   1.70039    0.063
 5918.00    1.67322   1.70031    0.063
 5919.00    1.67646   1.70006    0.063
 5920.00    1.67965   1.69994    0.064
 5921.00    1.68103   1.69974    0.064
 5922.00    1.67848   1.69956    0.064
 5923.00    1.67381   1.69943    0.064
 5924.00    1.66517   1.69918    0.063
 5925.00    1.66235   1.69909    0.063
 5926.00    1.66908   1.69882    0.064
 5927.00    1.66815   1.69876    0.065
 5928.00    1.65622   1.69849    0.065
 5929.00    1.64493   1.69835    0.065
 5930.00    1.63445   1.69813    0.066
 5931.00    1.63271   1.69793    0.066
 5932.00    1.64070   1.69784    0.066
 5933.00    1.64566   1.69752    0.066
 5934.00    1.64764   1.69748    0.066
 5935.00    1.64844   1.69714    0.065
 5936.00    1.64821   1.69704    0.065
 5937.00    1.65042   1.69687    0.065
 5938.00    1.65449   1.69661    0.065
 5939.00    1.65241   1.69655    0.065
 5940.00    1.64620   1.69622    0.065
 5941.00    1.64130   1.69612    0.064
 5942.00    1.63715   1.69594    0.064
 5943.00    1.64924   1.69574    0.064
 5944.00    1.66964   1.69566    0.065
 5945.00    1.67835   1.69540    0.065
 5946.00    1.68188   1.69527    0.064
 5947.00    1.66814   1.69514    0.064
 5948.00    1.64782   1.69500    0.063
 5949.00    1.64624   1.69499    0.063
 5950.00    1.65072   1.69477    0.063
 5951.00    1.66356   1.69470    0.063
 5952.00    1.67867   1.69461    0.063
 5953.00    1.68064   1.69448    0.063
 5954.00    1.67968   1.69450    0.063
 5955.00    1.67943   1.69428    0.063
 5956.00    1.67931   1.69422    0.063
 5957.00    1.67589   1.69407    0.063
 5958.00    1.67201   1.69387    0.062
 5959.00    1.67593   1.69379    0.064
 5960.00    1.68059   1.69351    0.065
 5961.00    1.68428   1.69335    0.065
 5962.00    1.68791   1.69306    0.065
 5963.00    1.70509   1.69280    0.065
 5964.00    1.72250   1.69257    0.066
 5965.00    1.72194   1.69231    0.065
 5966.00    1.72051   1.69206    0.065
 5967.00    1.69658   1.69171    0.065
 5968.00    1.67339   1.69149    0.066
 5969.00    1.66008   1.69124    0.065
 5970.00    1.64898   1.69114    0.064
 5971.00    1.65761   1.69095    0.064
 5972.00    1.66773   1.69072    0.064
 5973.00    1.68770   1.69064    0.064
 5974.00    1.70177   1.69046    0.064
 5975.00    1.68560   1.69048    0.063
 5976.00    1.67156   1.69040    0.062
 5977.00    1.66627   1.69026    0.062
 5978.00    1.66113   1.69027    0.062
 5979.00    1.65651   1.69009    0.061
 5980.00    1.65087   1.69011    0.061
 5981.00    1.64227   1.69002    0.062
 5982.00    1.63327   1.68987    0.063
 5983.00    1.62329   1.68985    0.063
 5984.00    1.61981   1.68962    0.063
 5985.00    1.63016   1.68956    0.063
 5986.00    1.64275   1.68938    0.063
 5987.00    1.65948   1.68921    0.063
 5988.00    1.67045   1.68911    0.063
 5989.00    1.67212   1.68883    0.063
 5990.00    1.67533   1.68872    0.063
 5991.00    1.68073   1.68846    0.064
 5992.00    1.68440   1.68830    0.064
 5993.00    1.68593   1.68813    0.064
 5994.00    1.68399   1.68790    0.064
 5995.00    1.67823   1.68777    0.064
 5996.00    1.67709   1.68753    0.064
 5997.00    1.68043   1.68742    0.064
 5998.00    1.67883   1.68723    0.064
 5999.00    1.67300   1.68710    0.064
 6000.00    1.66204   1.68698    0.064
 6001.00    1.64722   1.68682    0.063
 6002.00    1.63274   1.68674    0.063
 6003.00    1.61849   1.68658    0.062
 6004.00    1.61743   1.68649    0.062
 6005.00    1.62402   1.68639    0.062
 6006.00    1.63063   1.68626    0.062
 6007.00    1.63726   1.68616    0.062
 6008.00    1.63892   1.68602    0.061
 6009.00    1.63841   1.68587    0.061
 6010.00    1.63997   1.68578    0.062
 6011.00    1.64231   1.68558    0.062
 6012.00    1.64210   1.68546    0.062
 6013.00    1.64108   1.68528    0.062
 6014.00    1.64549   1.68507    0.063
 6015.00    1.65135   1.68494    0.064
 6016.00    1.65528   1.68466    0.064
 6017.00    1.65880   1.68453    0.064
 6018.00    1.66151   1.68427    0.064
 6019.00    1.66409   1.68403    0.064
 6020.00    1.65173   1.68387    0.064
 6021.00    1.63742   1.68355    0.064
 6022.00    1.62871   1.68340    0.073
 6023.00    1.62052   1.68313    0.085
 6024.00    1.63548   1.68291    0.087
 6025.00    1.65172   1.68273    0.087
 6026.00    1.65559   1.68248    0.087
 6027.00    1.65911   1.68232    0.086
 6028.00    1.65463   1.68212    0.073
 6029.00    1.65030   1.68196    0.064
 6030.00    1.64905   1.68182    0.064
 6031.00    1.64800   1.68168    0.064
 6032.00    1.64959   1.68156    0.063
 6033.00    1.65187   1.68144    0.062
 6034.00    1.66012   1.68134    0.062
 6035.00    1.66580   1.68124    0.061
 6036.00    1.65506   1.68115    0.060
 6037.00    1.64402   1.68106    0.060
 6038.00    1.63144   1.68097    0.060
 6039.00    1.61964   1.68086    0.060
 6040.00    1.61093   1.68076    0.060
 6041.00    1.60596   1.68065    0.060
 6042.00    1.61358   1.68054    0.061
 6043.00    1.62297   1.68042    0.061
 6044.00    1.63739   1.68025    0.061
 6045.00    1.64950   1.68013    0.061
 6046.00    1.65600   1.67996    0.062
 6047.00    1.66321   1.67979    0.062
 6048.00    1.67186   1.67962    0.063
 6049.00    1.67673   1.67938    0.063
 6050.00    1.67476   1.67918    0.063
 6051.00    1.66857   1.67897    0.063
 6052.00    1.65567   1.67868    0.063
 6053.00    1.64465   1.67848    0.063
 6054.00    1.63622   1.67817    0.063
 6055.00    1.63614   1.67787    0.063
 6056.00    1.64628   1.67766    0.063
 6057.00    1.65269   1.67726    0.064
 6058.00    1.65506   1.67706    0.064
 6059.00    1.64793   1.67672    0.064
 6060.00    1.63175   1.67642    0.064
 6061.00    1.62399   1.67625    0.063
 6062.00    1.62333   1.67587    0.062
 6063.00    1.63315   1.67576    0.062
 6064.00    1.65075   1.67547    0.062
 6065.00    1.66193   1.67529    0.062
 6066.00    1.66895   1.67521    0.062
 6067.00    1.66753   1.67494    0.061
 6068.00    1.66130   1.67494    0.060
 6069.00    1.65413   1.67476    0.060
 6070.00    1.64648   1.67469    0.059
 6071.00    1.63847   1.67468    0.060
 6072.00    1.63031   1.67451    0.061
 6073.00    1.63913   1.67457    0.061
 6074.00    1.65420   1.67444    0.061
 6075.00    1.67265   1.67440    0.061
 6076.00    1.69215   1.67439    0.061
 6077.00    1.69417   1.67424    0.062
 6078.00    1.69166   1.67427    0.062
 6079.00    1.68850   1.67414    0.062
 6080.00    1.68520   1.67407    0.063
 6081.00    1.67720   1.67402    0.063
 6082.00    1.66841   1.67384    0.063
 6083.00    1.65337   1.67382    0.063
 6084.00    1.63754   1.67367    0.063
 6085.00    1.63371   1.67351    0.063
 6086.00    1.63094   1.67344    0.064
 6087.00    1.63952   1.67319    0.063
 6088.00    1.64870   1.67308    0.063
 6089.00    1.66220   1.67291    0.062
 6090.00    1.67553   1.67264    0.062
 6091.00    1.67078   1.67252    0.062
 6092.00    1.66676   1.67219    0.062
 6093.00    1.67829   1.67197    0.062
 6094.00    1.68876   1.67177    0.062
 6095.00    1.68638   1.67140    0.062
 6096.00    1.68253   1.67120    0.062
 6097.00    1.66660   1.67084    0.061
 6098.00    1.65190   1.67050    0.061
 6099.00    1.64480   1.67025    0.060
 6100.00    1.63692   1.66986    0.060
 6101.00    1.62521   1.66955    0.061
 6102.00    1.61560   1.66923    0.062
 6103.00    1.61436   1.66884    0.062
 6104.00    1.61683   1.66858    0.063
 6105.00    1.63155   1.66828    0.063
 6106.00    1.64414   1.66795    0.063
 6107.00    1.65081   1.66775    0.063
 6108.00    1.65566   1.66746    0.063
 6109.00    1.65617   1.66728    0.063
 6110.00    1.65544   1.66719    0.063
 6111.00    1.65215   1.66695    0.063
 6112.00    1.64719   1.66692    0.063
 6113.00    1.63927   1.66681    0.063
 6114.00    1.63337   1.66673    0.063
 6115.00    1.63060   1.66680    0.063
 6116.00    1.62905   1.66669    0.062
 6117.00    1.62914   1.66671    0.062
 6118.00    1.62349   1.66672    0.062
 6119.00    1.61090   1.66665    0.062
 6120.00    1.60222   1.66670    0.062
 6121.00    1.59770   1.66663    0.062
 6122.00    1.60076   1.66656    0.061
 6123.00    1.61095   1.66653    0.062
 6124.00    1.62459   1.66642    0.061
 6125.00    1.64108   1.66634    0.061
 6126.00    1.64872   1.66622    0.060
 6127.00    1.64991   1.66609    0.060
 6128.00    1.65217   1.66593    0.060
 6129.00    1.65513   1.66581    0.060
 6130.00    1.65715   1.66565    0.060
 6131.00    1.65866   1.66545    0.061
 6132.00    1.65513   1.66533    0.062
 6133.00    1.64914   1.66507    0.062
 6134.00    1.64519   1.66495    0.063
 6135.00    1.64210   1.66475    0.063
 6136.00    1.64072   1.66448    0.063
 6137.00    1.63997   1.66436    0.063
 6138.00    1.63901   1.66404    0.064
 6139.00    1.63800   1.66385    0.064
 6140.00    1.63405   1.66362    0.064
 6141.00    1.62936   1.66329    0.063
 6142.00    1.63681   1.66313    0.063
 6143.00    1.64677   1.66276    0.063
 6144.00    1.66351   1.66251    0.064
 6145.00    1.68134   1.66225    0.065
 6146.00    1.67726   1.66185    0.064
 6147.00    1.67052   1.66164    0.063
 6148.00    1.65439   1.66119    0.062
 6149.00    1.63748   1.66091    0.061
 6150.00    1.63241   1.66056    0.060
 6151.00    1.62791   1.66009    0.059
 6152.00    1.62578   1.65985    0.059
 6153.00    1.62355   1.65930    0.059
 6154.00    1.61327   1.65902    0.059
 6155.00    1.60317   1.65863    0.059
 6156.00    1.59663   1.65816    0.059
 6157.00    1.59010   1.65798    0.059
 6158.00    1.58380   1.65751    0.060
 6159.00    1.57914   1.65732    0.061
 6160.00    1.58763   1.65707    0.061
 6161.00    1.59677   1.65678    0.061
 6162.00    1.60983   1.65676    0.062
 6163.00    1.62027   1.65657    0.062
 6164.00    1.61830   1.65652    0.062
 6165.00    1.61352   1.65655    0.061
 6166.00    1.59786   1.65646    0.062
 6167.00    1.58561   1.65657    0.062
 6168.00    1.58442   1.65663    0.062
 6169.00    1.59159   1.65662    0.061
 6170.00    1.62165   1.65679    0.062
 6171.00    1.64366   1.65678    0.062
 6172.00    1.64680   1.65681    0.062
 6173.00    1.64842   1.65697    0.062
 6174.00    1.64697   1.65685    0.062
 6175.00    1.64460   1.65698    0.062
 6176.00    1.64063   1.65694    0.062
 6177.00    1.62897   1.65683    0.061
 6178.00    1.60545   1.65693    0.061
 6179.00    1.58374   1.65673    0.060
 6180.00    1.56451   1.65673    0.060
 6181.00    1.55839   1.65663    0.059
 6182.00    1.56791   1.65645    0.059
 6183.00    1.58450   1.65643    0.059
 6184.00    1.60852   1.65625    0.059
 6185.00    1.61910   1.65614    0.060
 6186.00    1.61721   1.65599    0.061
 6187.00    1.61538   1.65583    0.061
 6188.00    1.61360   1.65573    0.062
 6189.00    1.61497   1.65557    0.062
 6190.00    1.61862   1.65540    0.062
 6191.00    1.61782   1.65527    0.062
 6192.00    1.61422   1.65511    0.061
 6193.00    1.60438   1.65498    0.061
 6194.00    1.59109   1.65484    0.062
 6195.00    1.56422   1.65462    0.064
 6196.00    1.53082   1.65452   -2.000
 6197.00    1.52115   1.65436   -2.000
 6198.00    1.52130   1.65415   -2.000
 6199.00    1.54756   1.65402   -2.000
 6200.00    1.58308   1.65376   -2.000
 6201.00    1.61771   1.65359   -2.000
 6202.00    1.65207   1.65342   -2.000
 6203.00    1.66338   1.65315   -2.000
 6204.00    1.66897   1.65292   -2.000
 6205.00    1.65568   1.65268   -2.000
 6206.00    1.63859   1.65237   -2.000
 6207.00    1.62499   1.65215   -2.000
 6208.00    1.61194   1.65183    0.061
 6209.00    1.61553   1.65144    0.060
 6210.00    1.62107   1.65117    0.060
 6211.00    1.61291   1.65071    0.060
 6212.00    1.60367   1.65036    0.059
 6213.00    1.59521   1.64997    0.059
 6214.00    1.58678   1.64943    0.060
 6215.00    1.58595   1.64906    0.060
 6216.00    1.58538   1.64853    0.060
 6217.00    1.59314   1.64803    0.060
 6218.00    1.60059   1.64762    0.061
 6219.00    1.60252   1.64708    0.061
 6220.00    1.60457   1.64668    0.062
 6221.00    1.60806   1.64629    0.063
 6222.00    1.61147   1.64583    0.063
 6223.00    1.61425   1.64558    0.062
 6224.00    1.61465   1.64530    0.062
 6225.00    1.60115   1.64504    0.061
 6226.00    1.58959   1.64497    0.061
 6227.00    1.58708   1.64482    0.061
 6228.00    1.58471   1.64478    0.062
 6229.00    1.58283   1.64484    0.061
 6230.00    1.58448   1.64478    0.061
 6231.00    1.59728   1.64494    0.062
 6232.00    1.60838   1.64504    0.062
 6233.00    1.61490   1.64509    0.060
 6234.00    1.61931   1.64529    0.059
 6235.00    1.61885   1.64530    0.058
 6236.00    1.61483   1.64549    0.058
 6237.00    1.60372   1.64558    0.058
 6238.00    1.59429   1.64555    0.058
 6239.00    1.58778   1.64571    0.059
 6240.00    1.58085   1.64564    0.059
 6241.00    1.57327   1.64573    0.059
 6242.00    1.57275   1.64569    0.059
 6243.00    1.58165   1.64559    0.059
 6244.00    1.59291   1.64560    0.060
 6245.00    1.60695   1.64548    0.060
 6246.00    1.61693   1.64542    0.060
 6247.00    1.62270   1.64530    0.060
 6248.00    1.62711   1.64519    0.060
 6249.00    1.63028   1.64504    0.061
 6250.00    1.62459   1.64494    0.061
 6251.00    1.61177   1.64477    0.061
 6252.00    1.59861   1.64463    0.061
 6253.00    1.58520   1.64451    0.061
 6254.00    1.58256   1.64428    0.061
 6255.00    1.58662   1.64419    0.062
 6256.00    1.58357   1.64397    0.061
 6257.00    1.57665   1.64384    0.061
 6258.00    1.56698   1.64366    0.061
 6259.00    1.55600   1.64346    0.062
 6260.00    1.55395   1.64334    0.065
 6261.00    1.55554   1.64310    0.068
 6262.00    1.57201   1.64300    0.070
 6263.00    1.59367   1.64273    0.071
 6264.00    1.60741   1.64260    0.070
 6265.00    1.61882   1.64244    0.068
 6266.00    1.61922   1.64217    0.065
 6267.00    1.61695   1.64209    0.062
 6268.00    1.62193   1.64178    0.060
 6269.00    1.62833   1.64165    0.059
 6270.00    1.63509   1.64147    0.060
 6271.00    1.64191   1.64118    0.062
 6272.00    1.63768   1.64109    0.062
 6273.00    1.63220   1.64081    0.062
 6274.00    1.62684   1.64066    0.062
 6275.00    1.62150   1.64049    0.062
 6276.00    1.61439   1.64020    0.062
 6277.00    1.60722   1.64009    0.062
 6278.00    1.59522   1.63986    0.061
 6279.00    1.58328   1.63964    0.061
 6280.00    1.57520   1.63949    0.000
 6281.00    1.56791   1.63917    0.000
 6282.00    1.57412   1.63898    0.000
 6283.00    1.58102   1.63873    0.000
 6284.00    1.59515   1.63838    0.000
 6285.00    1.60905   1.63814    0.000
 6286.00    1.62116   1.63772    0.000
 6287.00    1.63039   1.63737    0.000
 6288.00    1.62317   1.63697    0.000
 6289.00    1.61518   1.63649    0.000
 6290.00    1.60370   1.63606    0.000
 6291.00    1.59466   1.63551    0.000
 6292.00    1.59474   1.63502    0.000
 6293.00    1.59301   1.63449    0.000
 6294.00    1.58567   1.63392    0.000
 6295.00    1.57829   1.63343    0.000
 6296.00    1.57079   1.63289    0.000
 6297.00    1.56964   1.63240    0.000
 6298.00    1.58284   1.63199    0.000
 6299.00    1.59716   1.63157    0.000
 6300.00    1.61367   1.63128    0.000
 6301.00    1.62185   1.63102    0.000
 6302.00    1.61580   1.63083    0.000
 6303.00    1.60834   1.63075    0.000
 6304.00    1.59875   1.63070    0.000
 6305.00    1.59524   1.63079    0.000
 6306.00    1.59971   1.63082    0.000
 6307.00    1.60431   1.63102    0.000
 6308.00    1.60905   1.63120    0.000
 6309.00    1.60749   1.63135    0.000
 6310.00    1.59951   1.63169    0.000
 6311.00    1.58879   1.63174    0.000
 6312.00    1.57560   1.63205    0.000
 6313.00    1.56473   1.63226    0.000
 6314.00    1.55571   1.63228    0.000
 6315.00    1.55548   1.63258    0.000
 6316.00    1.56140   1.63251    0.000
 6317.00    1.56960   1.63265    0.000
 6318.00    1.57921   1.63270    0.000
 6319.00    1.58099   1.63253    0.000
 6320.00    1.57857   1.63263    0.000
 6321.00    1.58642   1.63244    0.058
 6322.00    1.59903   1.63236    0.059
 6323.00    1.60750   1.63225    0.060
 6324.00    1.61431   1.63192    0.060
 6325.00    1.61307   1.63183    0.061
 6326.00    1.60908   1.63151    0.061
 6327.00    1.60728   1.63126    0.061
 6328.00    1.60610   1.63105    0.060
 6329.00    1.60098   1.63055    0.059
 6330.00    1.59492   1.63031    0.059
 6331.00    1.59376   1.62993    0.059
 6332.00    1.59354   1.62955    0.059
 6333.00    1.59580   1.62933    0.059
 6334.00    1.59843   1.62880    0.059
 6335.00    1.60065   1.62862    0.059
 6336.00    1.60281   1.62841    0.059
 6337.00    1.60115   1.62799    0.058
 6338.00    1.59922   1.62792    0.058
 6339.00    1.60462   1.62766    0.058
 6340.00    1.61028   1.62774    0.058
 6341.00    1.61087   1.62777    0.058
 6342.00    1.61142   1.62750    0.057
 6343.00    1.61109   1.62759    0.057
 6344.00    1.61087   1.62757    0.057
 6345.00    1.61251   1.62764    0.058
 6346.00    1.61458   1.62769    0.058
 6347.00    1.62105   1.62757    0.058
 6348.00    1.62685   1.62753    0.058
 6349.00    1.62779   1.62748    0.060
 6350.00    1.62856   1.62730    0.061
 6351.00    1.62839   1.62715    0.061
 6352.00    1.62791   1.62706    0.061
 6353.00    1.62607   1.62668    0.062
 6354.00    1.61990   1.62649    0.062
 6355.00    1.59793   1.62621    0.061
 6356.00    1.57829   1.62587    0.060
 6357.00    1.56571   1.62573    0.060
 6358.00    1.55619   1.62522    0.060
 6359.00    1.55456   1.62498    0.059
 6360.00    1.55597   1.62481    0.059
 6361.00    1.56416   1.62439    0.059
 6362.00    1.56974   1.62419    0.060
 6363.00    1.57028   1.62385    0.060
 6364.00    1.57104   1.62371    0.059
 6365.00    1.57215   1.62363    0.058
 6366.00    1.57830   1.62332    0.058
 6367.00    1.59187   1.62316    0.058
 6368.00    1.60540   1.62296    0.058
 6369.00    1.61890   1.62296    0.058
 6370.00    1.62450   1.62279    0.059
 6371.00    1.62108   1.62264    0.058
 6372.00    1.61503   1.62255    0.059
 6373.00    1.60632   1.62236    0.059
 6374.00    1.59641   1.62240    0.059
 6375.00    1.58543   1.62217    0.058
 6376.00    1.57818   1.62197    0.058
 6377.00    1.57384   1.62191    0.059
 6378.00    1.57489   1.62160    0.059
 6379.00    1.57964   1.62151    0.060
 6380.00    1.58572   1.62122    0.059
 6381.00    1.59260   1.62082    0.059
 6382.00    1.59748   1.62060    0.059
 6383.00    1.60131   1.62006    0.059
 6384.00    1.59643   1.61965    0.059
 6385.00    1.58756   1.61916    0.058
 6386.00    1.57860   1.61848    0.057
 6387.00    1.56959   1.61803    0.057
 6388.00    1.56688   1.61730    0.057
 6389.00    1.56627   1.61660    0.056
 6390.00    1.56621   1.61609    0.056
 6391.00    1.56630   1.61527    0.056
 6392.00    1.56452   1.61479    0.057
 6393.00    1.56231   1.61427    0.058
 6394.00    1.56857   1.61364    0.058
 6395.00    1.57640   1.61344    0.059
 6396.00    1.57890   1.61301    0.060
 6397.00    1.58064   1.61280    0.060
 6398.00    1.58858   1.61285    0.060
 6399.00    1.59716   1.61270    0.060
 6400.00    1.60723   1.61290    0.060
 6401.00    1.61741   1.61311    0.060
 6402.00    1.60862   1.61325    0.060
 6403.00    1.59921   1.61367    0.060
 6404.00    1.58496   1.61393    0.060
 6405.00    1.57129   1.61426    0.060
 6406.00    1.57547   1.61470    0.060
 6407.00    1.57984   1.61497    0.060
 6408.00    1.58712   1.61530    0.059
 6409.00    1.59311   1.61557    0.058
 6410.00    1.58663   1.61578    0.058
 6411.00    1.57996   1.61605    0.058
 6412.00    1.57191   1.61616    0.058
 6413.00    1.56637   1.61626    0.058
 6414.00    1.57438   1.61639    0.057
 6415.00    1.57996   1.61641    0.057
 6416.00    1.57502   1.61645    0.057
 6417.00    1.57201   1.61641    0.057
 6418.00    1.57586   1.61634    0.058
 6419.00    1.57875   1.61635    0.059
 6420.00    1.57877   1.61623    0.058
 6421.00    1.57642   1.61610    0.057
 6422.00    1.56805   1.61604    0.058
 6423.00    1.56544   1.61585    0.059
 6424.00    1.57545   1.61580    0.059
 6425.00    1.58740   1.61559    0.060
 6426.00    1.60302   1.61540    0.060
 6427.00    1.61037   1.61534    0.061
 6428.00    1.60403   1.61507    0.061
 6429.00    1.59881   1.61498    0.062
 6430.00    1.59523   1.61477    0.061
 6431.00    1.58765   1.61455    0.061
 6432.00    1.57494   1.61450    0.060
 6433.00    1.57347   1.61418    0.059
 6434.00    1.58466   1.61404    0.058
 6435.00    1.59479   1.61387    0.057
 6436.00    1.60386   1.61358    0.057
 6437.00    1.60265   1.61353    0.057
 6438.00    1.59243   1.61315    0.057
 6439.00    1.58573   1.61301    0.057
 6440.00    1.58174   1.61286    0.057
 6441.00    1.58331   1.61250    0.057
 6442.00    1.58865   1.61244    0.057
 6443.00    1.58857   1.61213    0.057
 6444.00    1.58527   1.61190    0.057
 6445.00    1.57632   1.61184    0.058
 6446.00    1.56444   1.61144    0.058
 6447.00    1.55429   1.61140    0.059
 6448.00    1.54491   1.61123    0.059
 6449.00    1.53114   1.61094    0.059
 6450.00    1.51569   1.61092    0.059
 6451.00    1.49474   1.61062    0.059
 6452.00    1.47200   1.61050    0.058
 6453.00    1.43206   1.61042    0.058
 6454.00    1.38739   1.61012    0.058
 6455.00    1.34969   1.61008    0.057
 6456.00    1.31358   1.60989    0.057
 6457.00    1.31078   1.60967    0.057
 6458.00    1.31401   1.60956    0.057
 6459.00    1.33869   1.60930    0.062
 6460.00    1.36635   1.60916    0.070
 6461.00    1.39740   1.60901    0.070
 6462.00    1.42880   1.60873    0.069
 6463.00    1.46441   1.60856    0.066
 6464.00    1.50029   1.60838    0.063
 6465.00    1.52041   1.60814    0.060
 6466.00    1.54004   1.60794    0.057
 6467.00    1.55153   1.60773    0.057
 6468.00    1.56288   1.60751    0.057
 6469.00    1.57020   1.60734    0.057
 6470.00    1.57728   1.60707    0.057
 6471.00    1.58100   1.60687    0.059
 6472.00    1.58435   1.60670    0.060
 6473.00    1.58433   1.60645    0.061
 6474.00    1.58331   1.60627    0.061
 6475.00    1.57547   1.60603    0.061
 6476.00    1.56798   1.60581    0.062
 6477.00    1.56236   1.60564    0.062
 6478.00    1.55824   1.60531    0.062
 6479.00    1.56047   1.60514    0.062
 6480.00    1.56217   1.60489    0.061
 6481.00    1.56200   1.60460    0.059
 6482.00    1.56221   1.60439    0.057
 6483.00    1.56352   1.60405    0.057
 6484.00    1.56651   1.60383    0.057
 6485.00    1.57371   1.60359    0.057
 6486.00    1.57833   1.60326    0.057
 6487.00    1.57736   1.60304    0.057
 6488.00    1.57485   1.60277    0.057
 6489.00    1.56945   1.60250    0.057
 6490.00    1.56599   1.60225    0.058
 6491.00    1.56570   1.60194    0.058
 6492.00    1.56624   1.60170    0.059
 6493.00    1.56797   1.60144    0.059
 6494.00    1.56475   1.60112    0.059
 6495.00    1.55530   1.60080    0.059
 6496.00    1.54726   1.60051    0.059
 6497.00    1.54078   1.60012    0.060
 6498.00    1.53892   1.59973    0.061
 6499.00    1.54161   1.59932    0.061
 6500.00    1.54785   1.59880    0.060
 6501.00    1.55717   1.59828    0.059
 6502.00    1.56746   1.59769    0.059
 6503.00    1.57849   1.59699    0.058
 6504.00    1.58917   1.59627    0.058
 6505.00    1.59962   1.59550    0.058
 6506.00    1.60423   1.59456    0.058
 6507.00    1.60543   1.59369    0.058
 6508.00    1.60615   1.59271    0.057
 6509.00    1.60663   1.59159    0.056
 6510.00    1.60514   1.59065    0.056
 6511.00    1.60278   1.58950    0.055
 6512.00    1.59358   1.58838    0.056
 6513.00    1.58179   1.58745    0.056
 6514.00    1.57259   1.58629    0.056
 6515.00    1.56423   1.58544    0.056
 6516.00    1.56441   1.58458    0.057
 6517.00    1.56690   1.58367    0.058
 6518.00    1.56878   1.58315    0.059
 6519.00    1.57052   1.58233    0.059
 6520.00    1.57239   1.58178    0.059
 6521.00    1.57429   1.58122    0.059
 6522.00    1.57832   1.58052    0.059
 6523.00    1.58263   1.58004    0.059
 6524.00    1.58338   1.57924    0.058
 6525.00    1.58378   1.57838    0.057
 6526.00    1.56995   1.57749    0.058
 6527.00    1.55527   1.57608    0.058
 6528.00    1.54750   1.57468    0.000
 6529.00    1.54005   1.57269    0.000
 6530.00    1.55263   1.57029    0.000
 6531.00    1.56530   1.56759    0.000
 6532.00    1.58026   1.56398    0.000
 6533.00    1.59419   1.55986    0.000
 6534.00    1.59425   1.55494    0.000
 6535.00    1.59390   1.54880    0.000
 6536.00    1.58992   1.54204    0.000
 6537.00    1.58737   1.53372    0.000
 6538.00    1.59426   1.52405    0.000
 6539.00    1.60100   1.51340    0.000
 6540.00    1.60690   1.50069    0.000
 6541.00    1.61093   1.48708    0.000
 6542.00    1.60724   1.47202    0.000
 6543.00    1.60151   1.45522    0.000
 6544.00    1.58880   1.43882    0.000
 6545.00    1.57905   1.42095    0.000
 6546.00    1.57783   1.40299    0.000
 6547.00    1.57771   1.38640    0.000
 6548.00    1.58028   1.36938    0.000
 6549.00    1.57932   1.35560    0.000
 6550.00    1.57086   1.34356    0.000
 6551.00    1.56541   1.33342    0.000
 6552.00    1.56548   1.32903    0.000
 6553.00    1.56564   1.32649    0.000
 6554.00    1.56595   1.32787    0.000
 6555.00    1.56507   1.33346    0.000
 6556.00    1.56252   1.34051    0.000
 6557.00    1.56016   1.35227    0.000
 6558.00    1.55804   1.36572    0.000
 6559.00    1.56052   1.38033    0.000
 6560.00    1.56802   1.39806    0.000
 6561.00    1.57272   1.41520    0.000
 6562.00    1.57469   1.43266    0.000
 6563.00    1.57325   1.44994    0.000
 6564.00    1.56891   1.46538    0.000
 6565.00    1.56173   1.48054    0.000
 6566.00    1.55243   1.49413    0.000
 6567.00    1.53968   1.50597    0.000
 6568.00    1.52465   1.51728    0.000
 6569.00    1.51706   1.52663    0.000
 6570.00    1.51375   1.53474    0.000
 6571.00    1.52030   1.54211    0.000
 6572.00    1.53179   1.54784    0.000
 6573.00    1.54846   1.55323    0.000
 6574.00    1.56738   1.55768    0.000
 6575.00    1.56986   1.56119    0.000
 6576.00    1.56620   1.56481    0.000
 6577.00    1.55876   1.56747    0.000
 6578.00    1.55011   1.56980    0.000
 6579.00    1.56377   1.57208    0.000
 6580.00    1.58331   1.57369    0.000
 6581.00    1.59373   1.57544    0.000
 6582.00    1.60218   1.57682    0.000
 6583.00    1.60145   1.57789    0.000
 6584.00    1.59914   1.57905    0.000
 6585.00    1.59852   1.57992    0.000
 6586.00    1.59812   1.58070    0.000
 6587.00    1.59730   1.58138    0.000
 6588.00    1.59645   1.58197    0.000
 6589.00    1.58471   1.58254    0.000
 6590.00    1.57236   1.58294    0.000
 6591.00    1.56901   1.58337    0.000
 6592.00    1.56586   1.58367    0.000
 6593.00    1.56316   1.58399    0.000
 6594.00    1.56008   1.58427    0.000
 6595.00    1.54850   1.58440    0.000
 6596.00    1.53795   1.58466    0.000
 6597.00    1.54043   1.58483    0.000
 6598.00    1.54389   1.58490    0.000
 6599.00    1.55574   1.58508    0.000
 6600.00    1.56533   1.58517    0.000
 6601.00    1.56058   1.58523    0.000
 6602.00    1.55646   1.58536    0.000
 6603.00    1.55548   1.58537    0.000
 6604.00    1.55379   1.58545    0.000
 6605.00    1.54923   1.58551    0.000
 6606.00    1.54437   1.58548    0.000
 6607.00    1.53847   1.58555    0.000
 6608.00    1.53449   1.58555    0.000
 6609.00    1.53588   1.58551    0.057
 6610.00    1.53975   1.58556    0.058
 6611.00    1.54959   1.58549    0.058
 6612.00    1.55844   1.58545    0.059
 6613.00    1.56522   1.58544    0.059
 6614.00    1.56722   1.58534    0.060
 6615.00    1.56056   1.58531    0.060
 6616.00    1.55267   1.58523    0.059
 6617.00    1.54282   1.58513    0.057
 6618.00    1.53681   1.58509    0.057
 6619.00    1.53612   1.58499    0.056
 6620.00    1.54042   1.58491    0.056
 6621.00    1.55082   1.58485    0.056
 6622.00    1.55760   1.58476    0.056
 6623.00    1.56048   1.58469    0.057
 6624.00    1.56043   1.58460    0.057
 6625.00    1.55758   1.58455    0.057
 6626.00    1.55549   1.58447    0.057
 6627.00    1.55403   1.58437    0.057
 6628.00    1.54612   1.58434    0.057
 6629.00    1.53344   1.58422    0.058
 6630.00    1.52776   1.58419    0.059
 6631.00    1.52661   1.58409    0.059
 6632.00    1.53053   1.58397    0.060
 6633.00    1.53731   1.58396    0.060
 6634.00    1.53993   1.58381    0.059
 6635.00    1.54048   1.58372    0.059
 6636.00    1.54225   1.58367    0.058
 6637.00    1.54454   1.58349    0.058
 6638.00    1.54504   1.58345    0.058
 6639.00    1.54488   1.58332    0.058
 6640.00    1.54704   1.58315    0.057
 6641.00    1.54992   1.58310    0.057
 6642.00    1.55211   1.58291    0.057
 6643.00    1.55413   1.58276    0.057
 6644.00    1.54685   1.58263    0.057
 6645.00    1.53760   1.58239    0.057
 6646.00    1.53722   1.58224    0.057
 6647.00    1.53832   1.58199    0.056
 6648.00    1.54243   1.58162    0.057
 6649.00    1.54691   1.58141    0.057
 6650.00    1.54407   1.58098    0.057
 6651.00    1.54058   1.58038    0.057
 6652.00    1.53922   1.57994    0.058
 6653.00    1.53796   1.57914    0.059
 6654.00    1.54445   1.57829    0.058
 6655.00    1.55096   1.57744    0.058
 6656.00    1.54824   1.57594    0.058
 6657.00    1.54541   1.57487    0.058
 6658.00    1.54002   1.57340    0.058
 6659.00    1.53466   1.57104    0.059
 6660.00    1.52969   1.56981    0.058
 6661.00    1.52597   1.56763    0.057
 6662.00    1.53259   1.56466    0.057
 6663.00    1.53612   1.56317    0.057
 6664.00    1.52051   1.56044    0.057
 6665.00    1.50526   1.55876    0.057
 6666.00    1.49178   1.55765    0.057
 6667.00    1.48325   1.55491    0.057
 6668.00    1.49431   1.55454    0.057
 6669.00    1.50603   1.55398    0.057
 6670.00    1.51987   1.55247    0.057
 6671.00    1.52922   1.55339    0.058
 6672.00    1.52611   1.55357    0.058
 6673.00    1.52255   1.55421    0.058
 6674.00    1.51794   1.55606    0.058
 6675.00    1.51344   1.55682    0.058
 6676.00    1.50916   1.55881    0.059
 6677.00    1.50897   1.56092    0.059
 6678.00    1.51609   1.56222    0.059
 6679.00    1.52296   1.56423    0.059
 6680.00    1.52945   1.56603    0.059
 6681.00    1.53533   1.56748    0.059
 6682.00    1.54038   1.56904    0.059
 6683.00    1.54087   1.57035    0.059
 6684.00    1.53588   1.57155    0.059
 6685.00    1.53028   1.57258    0.058
 6686.00    1.52404   1.57337    0.057
 6687.00    1.51633   1.57404    0.057
 6688.00    1.50724   1.57461    0.057
 6689.00    1.50386   1.57507    0.057
 6690.00    1.50520   1.57540    0.057
 6691.00    1.51327   1.57562    0.057
 6692.00    1.52624   1.57586    0.058
 6693.00    1.53116   1.57600    0.058
 6694.00    1.53092   1.57598    0.059
 6695.00    1.52670   1.57613    0.059
 6696.00    1.52027   1.57615    0.000
 6697.00    1.51611   1.57604    0.000
 6698.00    1.51306   1.57615    0.000
 6699.00    1.50839   1.57603    0.000
 6700.00    1.50304   1.57591    0.000
 6701.00    1.49690   1.57600    0.000
 6702.00    1.49048   1.57574    0.000
 6703.00    1.49679   1.57567    0.000
 6704.00    1.50697   1.57568    0.000
 6705.00    1.50560   1.57537    0.000
 6706.00    1.50130   1.57537    0.000
 6707.00    1.49239   1.57524    0.000
 6708.00    1.48253   1.57500    0.000
 6709.00    1.48654   1.57497    0.000
 6710.00    1.49279   1.57478    0.000
 6711.00    1.50104   1.57460    0.000
 6712.00    1.50954   1.57453    0.000
 6713.00    1.51499   1.57434    0.000
 6714.00    1.52020   1.57420    0.000
 6715.00    1.52488   1.57408    0.000
 6716.00    1.52955   1.57395    0.000
 6717.00    1.52409   1.57380    0.000
 6718.00    1.51842   1.57368    0.000
 6719.00    1.50807   1.57360    0.000
 6720.00    1.49781   1.57340    0.000
 6721.00    1.48912   1.57336    0.000
 6722.00    1.48180   1.57322    0.000
 6723.00    1.49022   1.57305    0.000
 6724.00    1.49787   1.57304    0.000
 6725.00    1.49945   1.57279    0.000
 6726.00    1.50067   1.57272    0.000
 6727.00    1.49979   1.57268    0.000
 6728.00    1.49832   1.57237    0.000
 6729.00    1.49402   1.57242    0.000
 6730.00    1.49134   1.57227    0.000
 6731.00    1.49493   1.57201    0.000
 6732.00    1.49614   1.57215    0.000
 6733.00    1.48969   1.57189    0.000
 6734.00    1.48197   1.57177    0.000
 6735.00    1.47077   1.57192    0.000
 6736.00    1.46270   1.57162    0.000
 6737.00    1.46193   1.57166    0.000
 6738.00    1.46462   1.57172    0.000
 6739.00    1.47428   1.57149    0.000
 6740.00    1.48505   1.57165    0.000
 6741.00    1.49777   1.57160    0.000
 6742.00    1.50445   1.57146    0.000
 6743.00    1.50180   1.57155    0.000
 6744.00    1.49729   1.57147    0.000
 6745.00    1.49025   1.57138    0.000
 6746.00    1.48292   1.57134    0.000
 6747.00    1.47524   1.57128    0.000
 6748.00    1.46753   1.57117    0.000
 6749.00    1.45980   1.57110    0.000
 6750.00    1.45789   1.57102    0.000
 6751.00    1.46135   1.57087    0.000
 6752.00    1.47331   1.57081    0.000
 6753.00    1.49220   1.57073    0.062
 6754.00    1.49021   1.57052    0.063
 6755.00    1.47321   1.57047    0.064
 6756.00    1.45165   1.57038    0.064
 6757.00    1.42721   1.57019    0.064
 6758.00    1.42377   1.57011    0.064
 6759.00    1.43190   1.56995    0.065
 6760.00    1.50047   1.56986    0.066
 6761.00    1.59801   1.56971    0.068
 6762.00    1.67793   1.56948    0.070
 6763.00    1.75058   1.56943    0.072
 6764.00    1.76690   1.56925    0.073
 6765.00    1.76331   1.56901    0.073
 6766.00    1.75847   1.56891    0.071
 6767.00    1.75327   1.56872    0.070
 6768.00    1.75102   1.56859    0.068
 6769.00    1.74950   1.56835    0.067
 6770.00    1.71653   1.56821    0.066
 6771.00    1.67724   1.56816    0.066
 6772.00    1.64042   1.56786    0.064
 6773.00    1.60400   1.56780    0.062
 6774.00    1.57370   1.56772    0.061
 6775.00    1.54412   1.56752    0.060
 6776.00    1.52628   1.56750    0.060
 6777.00    1.50936   1.56738    0.061
 6778.00    1.54474   1.56726    0.063
 6779.00    1.58240   1.56728    0.064
 6780.00    1.57665   1.56715    0.065
 6781.00    1.57010   1.56709    0.065
 6782.00    1.54755   1.56710    0.065
 6783.00    1.52753   1.56698    0.065
 6784.00    1.55325   1.56693    0.065
 6785.00    1.57698   1.56690    0.066
 6786.00    1.57892   1.56684    0.065
 6787.00    1.57856   1.56676    0.065
 6788.00    1.56051   1.56674    0.065
 6789.00    1.54570   1.56667    0.065
 6790.00    1.54987   1.56655    0.064
 6791.00    1.55561   1.56659    0.064
 6792.00    1.56859   1.56644    0.063
 6793.00    1.58152   1.56633    0.063
 6794.00    1.59427   1.56638    0.063
 6795.00    1.59695   1.56620    0.062
 6796.00    1.56784   1.56610    0.062
 6797.00    1.54835   1.56611    0.061
 6798.00    1.55461   1.56591    0.062
 6799.00    1.55783   1.56584    0.062
 6800.00    1.55408   1.56578    0.062
 6801.00    1.54972   1.56562    0.062
 6802.00    1.54414   1.56554    0.063
 6803.00    1.53082   1.56542    0.064
 6804.00    1.50408   1.56529    0.064
 6805.00    1.48301   1.56525    0.063
 6806.00    1.47052   1.56506    0.063
 6807.00    1.47198   1.56498    0.063
 6808.00    1.49203   1.56493    0.063
 6809.00    1.50363   1.56470    0.063
 6810.00    1.50532   1.56469    0.063
 6811.00    1.50091   1.56457    0.063
 6812.00    1.49021   1.56439    0.064
 6813.00    1.49726   1.56435    0.064
 6814.00    1.52054   1.56420    0.064
 6815.00    1.52586   1.56408    0.064
 6816.00    1.51673   1.56400    0.063
 6817.00    1.51217   1.56383    0.062
 6818.00    1.51085   1.56377    0.062
 6819.00    1.51953   1.56362    0.061
 6820.00    1.53442   1.56347    0.062
 6821.00    1.54157   1.56344    0.062
 6822.00    1.54452   1.56325    0.062
 6823.00    1.53473   1.56314    0.062
 6824.00    1.51893   1.56311    0.062
 6825.00    1.50869   1.56287    0.062
 6826.00    1.50071   1.56284    0.062
 6827.00    1.50517   1.56276    0.063
 6828.00    1.51395   1.56251    0.064
 6829.00    1.51846   1.56255    0.064
 6830.00    1.52171   1.56239    0.064
 6831.00    1.53471   1.56222    0.064
 6832.00    1.55006   1.56222    0.064
 6833.00    1.54234   1.56203    0.063
 6834.00    1.53010   1.56194    0.061
 6835.00    1.52679   1.56191    0.062
 6836.00    1.52483   1.56171    0.063
 6837.00    1.53280   1.56167    0.064
 6838.00    1.54187   1.56161    0.065
 6839.00    1.53811   1.56141    0.065
 6840.00    1.53339   1.56140    0.065
 6841.00    1.51575   1.56133    0.065
 6842.00    1.49761   1.56115    0.065
 6843.00    1.47971   1.56112    0.063
 6844.00    1.46247   1.56103    0.062
 6845.00    1.47113   1.56091    0.061
 6846.00    1.47975   1.56081    0.060
 6847.00    1.48754   1.56072    0.062
 6848.00    1.49529   1.56062    0.063
 6849.00    1.50273   1.56049    0.063
 6850.00    1.51109   1.56042    0.063
 6851.00    1.52635   1.56029    0.063
 6852.00    1.53719   1.56015    0.062
 6853.00    1.52296   1.56007    0.061
 6854.00    1.50971   1.55990    0.061
 6855.00    1.50091   1.55974    0.061
 6856.00    1.49273   1.55962    0.061
 6857.00    1.48685   1.55942    0.061
 6858.00    1.47911   1.55915    0.061
 6859.00    1.46555   1.55898    0.061
 6860.00    1.45639   1.55871    0.061
 6861.00    1.45880   1.55830    0.062
 6862.00    1.45698   1.55799    0.061
 6863.00    1.44559   1.55756    0.061
 6864.00    1.44046   1.55695    0.061
 6865.00    1.44759   1.55643    0.062
 6866.00    1.45460   1.55576    0.063
 6867.00    1.46143   1.55484    0.063
 6868.00    1.45865   1.55410    0.064
 6869.00    1.44151   1.55313    0.063
 6870.00    1.44312   1.55196    0.063
 6871.00    1.46936   1.55101    0.062
 6872.00    1.48964   1.54981    0.062
 6873.00    1.50303   1.54856    0.061
 6874.00    1.50763   1.54752    0.061
 6875.00    1.50328   1.54636    0.061
 6876.00    1.48796   1.54530    0.061
 6877.00    1.46278   1.54443    0.060
 6878.00    1.44482   1.54367    0.060
 6879.00    1.43259   1.54306    0.060
 6880.00    1.43037   1.54264    0.060
 6881.00    1.43514   1.54253    0.060
 6882.00    1.44745   1.54257    0.061
 6883.00    1.46438   1.54273    0.061
 6884.00    1.46213   1.54334    0.061
 6885.00    1.44963   1.54395    0.062
 6886.00    1.44704   1.54457    0.062
 6887.00    1.44906   1.54565    0.062
 6888.00    1.45385   1.54649    0.062
 6889.00    1.45976   1.54732    0.062
 6890.00    1.44551   1.54845    0.061
 6891.00    1.42438   1.54926    0.061
 6892.00    1.41259   1.55006    0.061
 6893.00    1.40347   1.55094    0.061
 6894.00    1.41519   1.55157    0.061
 6895.00    1.43183   1.55216    0.061
 6896.00    1.44488   1.55274    0.061
 6897.00    1.45723   1.55310    0.061
 6898.00    1.46313   1.55346    0.061
 6899.00    1.46807   1.55381    0.062
 6900.00    1.46815   1.55396    0.062
 6901.00    1.46771   1.55412    0.063
 6902.00    1.46844   1.55429    0.063
 6903.00    1.46925   1.55435    0.062
 6904.00    1.46374   1.55434    0.062
 6905.00    1.45800   1.55442    0.062
 6906.00    1.45050   1.55446    0.062
 6907.00    1.44285   1.55430    0.062
 6908.00    1.43043   1.55442    0.063
 6909.00    1.41890   1.55434    0.063
 6910.00    1.42155   1.55419    0.063
 6911.00    1.42483   1.55433    0.062
 6912.00    1.43449   1.55411    0.062
 6913.00    1.44221   1.55408    0.061
 6914.00    1.43598   1.55416    0.061
 6915.00    1.43101   1.55387    0.061
 6916.00    1.43296   1.55395    0.061
 6917.00    1.43447   1.55396    0.061
 6918.00    1.43400   1.55371    0.060
 6919.00    1.43614   1.55381    0.060
 6920.00    1.44773   1.55375    0.061
 6921.00    1.45318   1.55363    0.061
 6922.00    1.43997   1.55366    0.061
 6923.00    1.43441   1.55358    0.061
 6924.00    1.44863   1.55356    0.061
 6925.00    1.45373   1.55350    0.061
 6926.00    1.43853   1.55346    0.062
 6927.00    1.42570   1.55340    0.063
 6928.00    1.41746   1.55338    0.063
 6929.00    1.41489   1.55332    0.063
 6930.00    1.42184   1.55319    0.062
 6931.00    1.42663   1.55324    0.062
 6932.00    1.42825   1.55311    0.063
 6933.00    1.43384   1.55299    0.063
 6934.00    1.44455   1.55303    0.063
 6935.00    1.44648   1.55284    0.063
 6936.00    1.43840   1.55276    0.062
 6937.00    1.43273   1.55279    0.062
 6938.00    1.42950   1.55256    0.062
 6939.00    1.41960   1.55254    0.062
 6940.00    1.40377   1.55254    0.061
 6941.00    1.40361   1.55229    0.061
 6942.00    1.41571   1.55233    0.062
 6943.00    1.42465   1.55228    0.062
 6944.00    1.43142   1.55207    0.063
 6945.00    1.42641   1.55215    0.063
 6946.00    1.41429   1.55201    0.063
 6947.00    1.41825   1.55194    0.063
 6948.00    1.43066   1.55195    0.063
 6949.00    1.43014   1.55173    0.063
 6950.00    1.42371   1.55186    0.064
 6951.00    1.42250   1.55171    0.064
 6952.00    1.42334   1.55150    0.063
 6953.00    1.42308   1.55171    0.063
 6954.00    1.42246   1.55147    0.063
 6955.00    1.41975   1.55128    0.062
 6956.00    1.41644   1.55149    0.061
 6957.00    1.40997   1.55119    0.061
 6958.00    1.40276   1.55105    0.061
 6959.00    1.40448   1.55121    0.062
 6960.00    1.40787   1.55088    0.062
 6961.00    1.40299   1.55080    0.062
 6962.00    1.39693   1.55085    0.061
 6963.00    1.40286   1.55058    0.061
 6964.00    1.41002   1.55050    0.061
 6965.00    1.38923   1.55053    0.063
 6966.00    1.36658   1.55027    0.064
 6967.00    1.38197   1.55018    0.064
 6968.00    1.39858   1.55024    0.065
 6969.00    1.39592   1.54997    0.065
 6970.00    1.39356   1.54989    0.064
 6971.00    1.40028   1.54997    0.064
 6972.00    1.40601   1.54972    0.064
 6973.00    1.39700   1.54962    0.063
 6974.00    1.38836   1.54976    0.063
 6975.00    1.38337   1.54948    0.063
 6976.00    1.37948   1.54941    0.063
 6977.00    1.38322   1.54956    0.062
 6978.00    1.38678   1.54927    0.062
 6979.00    1.38937   1.54924    0.062
 6980.00    1.39076   1.54936    0.062
 6981.00    1.38697   1.54910    0.062
 6982.00    1.38448   1.54911    0.061
 6983.00    1.38662   1.54918    0.062
 6984.00    1.38861   1.54895    0.063
 6985.00    1.39015   1.54900    0.063
 6986.00    1.39153   1.54904    0.063
 6987.00    1.39252   1.54880    0.063
 6988.00    1.39151   1.54890    0.063
 6989.00    1.38615   1.54891    0.064
 6990.00    1.38015   1.54865    0.064
 6991.00    1.37294   1.54879    0.064
 6992.00    1.37338   1.54878    0.064
 6993.00    1.38650   1.54851    0.064
 6994.00    1.39948   1.54867    0.064
 6995.00    1.41225   1.54864    0.064
 6996.00    1.41770   1.54838    0.063
 6997.00    1.41381   1.54857    0.063
 6998.00    1.40594   1.54850    0.063
 6999.00    1.39360   1.54829    0.063
 7000.00    1.38565   1.54847    0.063
 7001.00    1.38204   1.54837    0.063
 7002.00    1.39164   1.54823    0.063
 7003.00    1.41278   1.54837    0.064
 7004.00    1.40033   1.54830    0.064
 7005.00    1.36199   1.54817    0.064
 7006.00    1.29379   1.54829    0.064
 7007.00    1.20536   1.54826    0.064
 7008.00    1.19773   1.54808    0.065
 7009.00    1.23807   1.54824    0.065
 7010.00    1.24076   1.54820    0.066
 7011.00    1.22395   1.54796    0.065
 7012.00    1.23678   1.54818    0.065
 7013.00    1.26292   1.54809    0.065
 7014.00    1.26982   1.54785    0.065
 7015.00    1.26930   1.54805    0.065
 7016.00    1.26860   1.54792    0.065
 7017.00    1.26783   1.54773    0.064
 7018.00    1.27002   1.54787    0.063
 7019.00    1.27302   1.54774    0.063
 7020.00    1.26646   1.54759    0.064
 7021.00    1.25774   1.54768    0.065
 7022.00    1.24620   1.54756    0.064
 7023.00    1.23414   1.54747    0.063
 7024.00    1.23770   1.54755    0.065
 7025.00    1.24343   1.54741    0.067
 7026.00    1.26129   1.54741    0.067
 7027.00    1.28036   1.54747    0.068
 7028.00    1.27973   1.54734    0.068
 7029.00    1.27787   1.54740    0.069
 7030.00    1.27700   1.54742    0.069
 7031.00    1.27620   1.54737    0.069
 7032.00    1.28774   1.54742    0.068
 7033.00    1.29863   1.54738    0.067
 7034.00    1.29174   1.54744    0.067
 7035.00    1.28523   1.54740    0.068
 7036.00    1.28424   1.54736    0.067
 7037.00    1.28240   1.54749    0.066
 7038.00    1.27287   1.54733    0.065
 7039.00    1.26486   1.54734    0.064
 7040.00    1.26709   1.54744    0.065
 7041.00    1.27118   1.54723    0.065
 7042.00    1.28502   1.54727    0.065
 7043.00    1.29684   1.54731    0.065
 7044.00    1.30013   1.54710    0.066
 7045.00    1.30423   1.54716    0.068
 7046.00    1.31115   1.54711    0.069
 7047.00    1.31465   1.54694    0.069
 7048.00    1.30817   1.54701    0.069
 7049.00    1.30186   1.54689    0.069
 7050.00    1.29598   1.54676   -2.000
 7051.00    1.29728   1.54686   -2.000
 7052.00    1.31399   1.54665   -2.000
 7053.00    1.32994   1.54658   -2.000
 7054.00    1.34448   1.54669   -2.000
 7055.00    1.35448   1.54644   -2.000
 7056.00    1.35709   1.54639   -2.000
 7057.00    1.36284   1.54647   -2.000
 7058.00    1.37308   1.54625   -2.000
 7059.00    1.38681   1.54616   -2.000
 7060.00    1.40493   1.54623   -2.000
 7061.00    1.42551   1.54603   -2.000
 7062.00    1.44883   1.54587   -2.000
 7063.00    1.47121   1.54590   -2.000
 7064.00    1.49268   1.54571   -2.000
 7065.00    1.47105   1.54550   -2.000
 7066.00    1.41224   1.54546   -2.000
 7067.00    1.37704   1.54525   -2.000
 7068.00    1.35976   1.54502   -2.000
 7069.00    1.36700   1.54491   -2.000
 7070.00    1.39063   1.54465   -2.000
 7071.00    1.40488   1.54444   -2.000
 7072.00    1.41364   1.54428   -2.000
 7073.00    1.42114   1.54399   -2.000
 7074.00    1.42801   1.54382   -2.000
 7075.00    1.44823   1.54363   -2.000
 7076.00    1.47434   1.54336   -2.000
 7077.00    1.46531   1.54326   -2.000
 7078.00    1.44296   1.54309   -2.000
 7079.00    1.42343   1.54286   -2.000
 7080.00    1.40482   1.54289   -2.000
 7081.00    1.40740   1.54275   -2.000
 7082.00    1.41568   1.54260   -2.000
 7083.00    1.39965   1.54278   -2.000
 7084.00    1.37826   1.54269   -2.000
 7085.00    1.36101   1.54266   -2.000
 7086.00    1.34448   1.54290   -2.000
 7087.00    1.35310   1.54291   -2.000
 7088.00    1.36508   1.54297   -2.000
 7089.00    1.39040   1.54318   -2.000
 7090.00    1.41699   1.54331   -2.000
 7091.00    1.37710   1.54337   -2.000
 7092.00    1.33331   1.54352   -2.000
 7093.00    1.33297   1.54373   -2.000
 7094.00    1.33371   1.54373   -2.000
 7095.00    1.33576   1.54381   -2.000
 7096.00    1.33664   1.54405   -2.000
 7097.00    1.30828   1.54394   -2.000
 7098.00    1.28140   1.54400   -2.000
 7099.00    1.27433   1.54420   -2.000
 7100.00    1.26495   1.54402   -2.000
 7101.00    1.23517   1.54406   -2.000
 7102.00    1.21140   1.54424   -2.000
 7103.00    1.22690   1.54400   -2.000
 7104.00    1.24015   1.54405   -2.000
 7105.00    1.24190   1.54419   -2.000
 7106.00    1.24483   1.54393   -2.000
 7107.00    1.25263   1.54401   -2.000
 7108.00    1.25739   1.54409   -2.000
 7109.00    1.25178   1.54388   -2.000
 7110.00    1.24816   1.54396   -2.000
 7111.00    1.25028   1.54398   -2.000
 7112.00    1.25061   1.54384   -2.000
 7113.00    1.24652   1.54390   -2.000
 7114.00    1.24127   1.54388   -2.000
 7115.00    1.23355   1.54382   -2.000
 7116.00    1.23338   1.54384   -2.000
 7117.00    1.24709   1.54379   -2.000
 7118.00    1.26622   1.54379   -2.000
 7119.00    1.29407   1.54379   -2.000
 7120.00    1.32283   1.54373   -2.000
 7121.00    1.35287   1.54377   -2.000
 7122.00    1.35295   1.54374   -2.000
 7123.00    1.31586   1.54367   -2.000
 7124.00    1.30600   1.54373   -2.000
 7125.00    1.32589   1.54369   -2.000
 7126.00    1.33781   1.54362   -2.000
 7127.00    1.34204   1.54367   -2.000
 7128.00    1.32892   1.54363   -2.000
 7129.00    1.30103   1.54355   -2.000
 7130.00    1.29302   1.54361   -2.000
 7131.00    1.29990   1.54356   -2.000
 7132.00    1.30040   1.54348   -2.000
 7133.00    1.29669   1.54354   -2.000
 7134.00    1.28109   1.54347   -2.000
 7135.00    1.25866   1.54341   -2.000
 7136.00    1.26329   1.54346   -2.000
 7137.00    1.28150   1.54337   -2.000
 7138.00    1.30763   1.54334   -2.000
 7139.00    1.33721   1.54337   -2.000
 7140.00    1.34529   1.54326   -2.000
 7141.00    1.34536   1.54327   -2.000
 7142.00    1.30472   1.54328   -2.000
 7143.00    1.25122   1.54314   -2.000
 7144.00    1.24354   1.54319   -2.000
 7145.00    1.24795   1.54317   -2.000
 7146.00    1.23929   1.54302   -2.000
 7147.00    1.22782   1.54310   -2.000
 7148.00    1.21746   1.54307   -2.000
 7149.00    1.20729   1.54292   -2.000
 7150.00    1.21108   1.54302   -2.000
 7151.00    1.21667   1.54297   -2.000
 7152.00    1.23462   1.54283   -2.000
 7153.00    1.25369   1.54296   -2.000
 7154.00    1.23695   1.54290   -2.000
 7155.00    1.21825   1.54279   -2.000
 7156.00    1.23297   1.54291   -2.000
 7157.00    1.24801   1.54284   -2.000
 7158.00    1.22774   1.54276   -2.000
 7159.00    1.21093   1.54288   -2.000
 7160.00    1.27276   1.54279   -2.000
 7161.00    1.33349   1.54274   -2.000
 7162.00    1.38037   1.54282   -2.000
 7163.00    1.42139   1.54272   -2.000
 7164.00    1.41250   1.54268   -2.000
 7165.00    1.39819   1.54273   -2.000
 7166.00    1.34956   1.54261   -2.000
 7167.00    1.31167   1.54259   -2.000
 7168.00    1.32706   1.54261   -2.000
 7169.00    1.33837   1.54248   -2.000
 7170.00    1.33323   1.54246   -2.000
 7171.00    1.32360   1.54247   -2.000
 7172.00    1.29897   1.54234   -2.000
 7173.00    1.27401   1.54233   -2.000
 7174.00    1.24808   1.54233   -2.000
 7175.00    1.23822   1.54222   -2.000
 7176.00    1.26715   1.54222   -2.000
 7177.00    1.29044   1.54222   -2.000
 7178.00    1.30200   1.54212   -2.000
 7179.00    1.30509   1.54214   -2.000
 7180.00    1.29284   1.54214   -2.000
 7181.00    1.26677   1.54206   -2.000
 7182.00    1.21882   1.54207   -2.000
 7183.00    1.19402   1.54208   -2.000
 7184.00    1.20140   1.54202   -2.000
 7185.00    1.20765   1.54203   -2.000
 7186.00    1.21251   1.54203   -2.000
 7187.00    1.21811   1.54199   -2.000
 7188.00    1.22449   1.54199   -2.000
 7189.00    1.23726   1.54200   -2.000
 7190.00    1.25609   1.54197   -2.000
 7191.00    1.24534   1.54198   -2.000
 7192.00    1.20977   1.54198   -2.000
 7193.00    1.19618   1.54198   -2.000
 7194.00    1.19880   1.54199   -2.000
 7195.00    1.19119   1.54199   -2.000
 7196.00    1.17696   1.54201   -2.000
 7197.00    1.18504   1.54203   -2.000
 7198.00    1.20576   1.54202   -2.000
 7199.00    1.20685   1.54206   -2.000
 7200.00    1.19823   1.54210   -2.000
 7201.00    1.22846   1.54208   -2.000
 7202.00    1.27528   1.54213   -2.000
 7203.00    1.27592   1.54219   -2.000
 7204.00    1.25965   1.54217   -2.000
 7205.00    1.20991   1.54221   -2.000
 7206.00    1.14979   1.54229   -2.000
 7207.00    1.14617   1.54226   -2.000
 7208.00    1.15713   1.54229   -2.000
 7209.00    1.07737   1.54238   -2.000
 7210.00    0.97853   1.54234   -2.000
 7211.00    1.11640   1.54236   -2.000
 7212.00    1.29359   1.54245   -2.000
 7213.00    1.32155   1.54240   -2.000
 7214.00    1.33086   1.54242   -2.000
 7215.00    1.32860   1.54249   -2.000
 7216.00    1.32534   1.54244   -2.000
 7217.00    1.33373   1.54244   -2.000
 7218.00    1.34271   1.54249   -2.000
