###################################################################
## OUTPUT of StarlightChains_v04.for    [Cid@UFSC - 01/Apr/2007] ##
###################################################################

## Some input info
KUG0210-078._32_37.txt                   [arq_obs]
Base.CB07.vall.4m                        [arq_base]
Masks.EmLines.NEW.gm                     [arq_masks]
StCv04.C11.config                        [arq_config]
   66                                    [N_base]
    0                                    [N_YAV_components = # of components with extra extinction!]
    0                                    [i_FitPowerLaw (1/0 = Yes/No)]
-9.99                                    [alpha_PowerLaw]
CCM                                      [red_law_option]
 1.458241                                [q_norm = A(l_norm)/A(V)]

## (Re)Sampling Parameters
 3741.00                                 [l_ini (A)]
 7218.00                                 [l_fin (A)]
    1.00                                 [dl    (A)]     (OBS: dl_cushion =    50.00 A)

## Normalization info
 4020.00                                 [l_norm (A) - for base]
 4010.00                                 [llow_norm (A) - window for f_obs]
 4060.00                                 [lupp_norm (A) - window for f_obs]
3.466193E-17                             [fobs_norm (in input units)]

## S/N
 3691.00                                 [llow_SN (A) - window for S/N]
 7268.00                                 [lupp_SN (A) - window for S/N]
   4.674                                 [S/N in S/N window]
   3.353                                 [S/N in norm. window]
   0.068                                 [S/N_err in S/N window]
   0.049                                 [S/N_err in norm. window]
  1.0000                                 [fscale_chi2]

## etc...
    -2007485                             [idum_orig]
  2432                                   [NOl_eff]
  2426                                   [Nl_eff]
     6    NSIGMA                         [Ntot_cliped & clip_method]
  7590870                                [Nglobal_steps]
   7                                     [N_chains]
  42                                     [NEX0s_base = N_base in EX0s-fits]
 0   0   1        6   2.0   3.470E+03    [Clip-Bug, RC-Crash & Burn-In warning-flags, n_censored_weights, wei_nsig_threshold & wei_limit]
   557    553.753    550.754      3.000  [idt_all, wdt_TotTime, wdt_UsrTime & wdt_SysTime (sec)]

## Synthesis Results - Best model ##

 2.21099E-05                             [chi2/Nl_eff]
     5.35197                             [adev (%)]

   121.30025                             [sum-of-x (%)]
 2.17675E-17                             [Flux_tot (units of input spectrum!)]
 2.17490E-12                             [Mini_tot (???)]
 1.10514E-12                             [Mcor_tot (???)]

 -84.05                                  [v0_min  (km/s)]
 303.90                                  [vd_min  (km/s)]
-0.4902                                  [AV_min  (mag)]
 0.0000                                  [YAV_min (mag)]

# j     x_j(%)      Mini_j(%)     Mcor_j(%)     age_j(yr)     Z_j      (L/M)_j    YAV?  Mstars   component_j        a/Fe...       SSP_chi2r SSP_adev(%)   SSP_AV   SSP_x(%)
  1      0.0000     0.0000E+00    0.0000E+00    1.000000E+06  0.00400  1.094E-02    0   1.0000   age020_m42            0.0000     1.2006E-04    12.4293   3.7250   101.6010
  2      0.0000     0.0000E+00    0.0000E+00    3.160000E+06  0.00400  4.007E-02    0   0.9999   age045_m42            0.0000     9.8970E-05    11.4632   2.9823   109.3264
  3      0.0000     0.0000E+00    0.0000E+00    5.010000E+06  0.00400  2.539E-02    0   0.9488   age055_m42            0.0000     1.0864E-04    11.9695   3.3112   106.2629
  4      0.0000     0.0000E+00    0.0000E+00    6.610000E+06  0.00400  2.620E-02    0   0.9220   age061_m42            0.0000     1.0007E-04    11.5635   2.9069   109.6037
  5      0.0000     0.0000E+00    0.0000E+00    1.000000E+07  0.00400  1.322E-02    0   0.8862   age070_m42            0.0000     1.2133E-04    13.2810   2.6297   111.4584
  6      0.0000     0.0000E+00    0.0000E+00    1.445000E+07  0.00400  7.883E-03    0   0.8571   age078_m42            0.0000     1.2446E-04    13.3069   2.9594   108.5205
  7      0.0000     0.0000E+00    0.0000E+00    2.512000E+07  0.00400  5.251E-03    0   0.8174   age090_m42            0.0000     1.2462E-04    13.5843   2.5004   112.0249
  8      0.0000     0.0000E+00    0.0000E+00    4.000000E+07  0.00400  3.649E-03    0   0.7851   age104_m42            0.0000     1.1792E-04    13.2350   2.2697   113.1702
  9      0.0000     0.0000E+00    0.0000E+00    5.500000E+07  0.00400  3.098E-03    0   0.7629   age110_m42            0.0000     1.0567E-04    12.2471   2.4168   113.5814
 10      0.0000     0.0000E+00    0.0000E+00    1.015200E+08  0.00400  2.228E-03    0   0.7207   age116_m42            0.0000     9.7876E-05    11.5819   2.4323   114.0818
 11      0.0000     0.0000E+00    0.0000E+00    2.861200E+08  0.00400  1.093E-03    0   0.6648   age125_m42            0.0000     1.0150E-04    12.0149   1.8499   117.7590
 12      0.0000     0.0000E+00    0.0000E+00    5.088000E+08  0.00400  6.597E-04    0   0.6365   age130_m42            0.0000     8.7197E-05    10.8674   1.8353   119.1769
 13      0.0000     0.0000E+00    0.0000E+00    1.434000E+09  0.00400  2.132E-04    0   0.5798   age139_m42            0.0000     6.7762E-05     9.9806   0.8669   121.6932
 14      0.2346     3.2838E-02    3.4749E-02    4.250000E+09  0.00400  5.895E-05    0   0.5377   age158_m42            0.0000     5.3318E-05     8.8782   0.4316   116.9824
 15      0.0000     0.0000E+00    0.0000E+00    7.500000E+09  0.00400  3.510E-05    0   0.5212   age171_m42            0.0000     4.7875E-05     8.3667   0.2411   116.3625
 16      0.0000     0.0000E+00    0.0000E+00    1.300000E+10  0.00400  2.005E-05    0   0.5034   age193_m42            0.0000     4.4510E-05     7.9470   0.0732   115.8634
 17      0.0000     0.0000E+00    0.0000E+00    1.800000E+10  0.00400  1.525E-05    0   0.4967   age213_m42            0.0000     4.6030E-05     8.1220   0.0510   115.2983
 18      0.0000     0.0000E+00    0.0000E+00    1.000000E+06  0.00800  1.238E-02    0   1.0000   age020_m52            0.0000     1.1993E-04    12.4253   3.7214   101.8053
 19      1.1761     3.1569E-04    6.1915E-04    3.160000E+06  0.00800  3.074E-02    0   0.9966   age045_m52            0.0000     1.1742E-04    12.3173   3.6441   102.7698
 20      0.0000     0.0000E+00    0.0000E+00    5.010000E+06  0.00800  2.668E-02    0   0.9443   age055_m52            0.0000     1.1187E-04    12.1473   3.3947   105.2592
 21      0.0000     0.0000E+00    0.0000E+00    6.610000E+06  0.00800  2.136E-02    0   0.9177   age061_m52            0.0000     1.1360E-04    13.0721   2.1354   112.6223
 22      0.0000     0.0000E+00    0.0000E+00    1.000000E+07  0.00800  1.215E-02    0   0.8827   age070_m52            0.0000     1.3201E-04    13.9511   2.8092   111.0326
 23      0.0000     0.0000E+00    0.0000E+00    1.445000E+07  0.00800  8.717E-03    0   0.8552   age078_m52            0.0000     1.2308E-04    13.3112   2.9238   110.0804
 24      1.1550     1.7042E-03    2.7374E-03    2.512000E+07  0.00800  5.592E-03    0   0.8162   age090_m52            0.0000     1.2540E-04    13.6709   2.5602   113.4622
 25      0.0947     2.0062E-04    3.0957E-04    4.000000E+07  0.00800  3.896E-03    0   0.7841   age104_m52            0.0000     1.1638E-04    13.1037   2.4656   114.6834
 26      0.0000     0.0000E+00    0.0000E+00    1.015200E+08  0.00800  2.148E-03    0   0.7226   age116_m52            0.0000     1.0146E-04    12.0227   2.3999   114.8725
 27      2.3372     1.9430E-02    2.5555E-02    2.861200E+08  0.00800  9.925E-04    0   0.6683   age125_m52            0.0000     8.7126E-05    10.8824   1.8988   120.3534
 28      0.0000     0.0000E+00    0.0000E+00    9.047900E+08  0.00800  3.141E-04    0   0.6138   age135_m52            0.0000     6.0454E-05     9.1237   1.0902   126.0833
 29      0.0000     0.0000E+00    0.0000E+00    1.434000E+09  0.00800  1.719E-04    0   0.5853   age139_m52            0.0000     5.6054E-05     9.0984   0.5148   123.2388
 30      0.0000     0.0000E+00    0.0000E+00    2.500000E+09  0.00800  7.872E-05    0   0.5600   age150_m52            0.0000     4.2022E-05     7.8253   0.2521   120.0573
 31      0.0000     0.0000E+00    0.0000E+00    4.250000E+09  0.00800  4.336E-05    0   0.5426   age158_m52            0.0000     4.1930E-05     7.8225   0.2385   118.8720
 32      0.0000     0.0000E+00    0.0000E+00    6.250000E+09  0.00800  3.159E-05    0   0.5319   age166_m52            0.0000     3.5135E-05     7.0668   0.0310   119.2141
 33      0.0000     0.0000E+00    0.0000E+00    1.300000E+10  0.00800  1.361E-05    0   0.5073   age193_m52            0.0000     2.8831E-05     6.2765  -0.4420   118.8034
 34      3.0350     2.5330E+00    2.4875E+00    1.800000E+10  0.00800  9.886E-06    0   0.4990   age213_m52            0.0000     2.4980E-05     5.7245  -0.5564   118.6067
 35      0.0000     0.0000E+00    0.0000E+00    1.000000E+06  0.02000  1.544E-02    0   1.0000   age020_m62            0.0000     1.2054E-04    12.4465   3.7177   102.0320
 36      0.0000     0.0000E+00    0.0000E+00    3.160000E+06  0.02000  3.762E-02    0   0.9858   age045_m62            0.0000     1.1981E-04    12.3932   3.6565   102.9470
 37      0.0000     0.0000E+00    0.0000E+00    5.010000E+06  0.02000  3.296E-02    0   0.9342   age055_m62            0.0000     1.0285E-04    11.5884   3.2646   107.8956
 38      0.0000     0.0000E+00    0.0000E+00    8.710000E+06  0.02000  1.154E-02    0   0.8861   age067_m62            0.0000     2.0216E-04    18.0619   2.2646   113.1176
 39      0.0000     0.0000E+00    0.0000E+00    1.445000E+07  0.02000  7.663E-03    0   0.8472   age078_m62            0.0000     1.4888E-04    15.1349   2.4515   113.4076
 40      0.0000     0.0000E+00    0.0000E+00    2.512000E+07  0.02000  4.532E-03    0   0.8099   age090_m62            0.0000     1.5231E-04    15.3383   2.4405   113.1457
 41      0.0000     0.0000E+00    0.0000E+00    5.500000E+07  0.02000  2.733E-03    0   0.7595   age110_m62            0.0000     1.1687E-04    13.1214   2.4515   113.7291
 42      0.0000     0.0000E+00    0.0000E+00    1.609000E+08  0.02000  1.369E-03    0   0.6985   age120_m62            0.0000     9.6884E-05    11.5761   2.2756   117.7429
 43      0.0000     0.0000E+00    0.0000E+00    2.861200E+08  0.02000  9.013E-04    0   0.6714   age125_m62            0.0000     8.5976E-05    10.7223   2.0148   121.7829
 44      0.6904     1.1329E-02    1.4379E-02    5.088000E+08  0.02000  5.028E-04    0   0.6449   age130_m62            0.0000     6.5275E-05     9.0815   1.6275   125.7311
 45      0.0000     0.0000E+00    0.0000E+00    9.047900E+08  0.02000  2.428E-04    0   0.6179   age135_m62            0.0000     4.8893E-05     8.2259   1.0405   125.1086
 46      0.0000     0.0000E+00    0.0000E+00    1.434000E+09  0.02000  1.263E-04    0   0.5908   age139_m62            0.0000     4.3286E-05     7.9864   0.6013   123.1137
 47      6.1389     8.4633E-01    9.4487E-01    2.500000E+09  0.02000  5.985E-05    0   0.5673   age150_m62            0.0000     3.4784E-05     7.0862   0.2345   121.6393
 48      0.0000     0.0000E+00    0.0000E+00    4.250000E+09  0.02000  3.271E-05    0   0.5468   age158_m62            0.0000     2.7124E-05     6.0858  -0.0767   121.0671
 49     55.3950     3.3608E+01    3.4174E+01    1.000000E+10  0.02000  1.360E-05    0   0.5167   age181_m62            0.0000     2.1981E-05     5.3252  -0.4358   121.2064
 50     13.8371     1.6026E+01    1.5811E+01    1.800000E+10  0.02000  7.124E-06    0   0.5013   age213_m62            0.0000     2.1038E-05     5.1392  -0.6548   120.7408
 51      0.0000     0.0000E+00    0.0000E+00    1.000000E+06  0.05000  2.592E-02    0   0.9998   age020_m72            0.0000     1.2302E-04    12.5999   3.7118   101.9615
 52      0.0000     0.0000E+00    0.0000E+00    3.160000E+06  0.05000  4.845E-02    0   0.9577   age045_m72            0.0000     1.1171E-04    11.9882   3.5336   104.5887
 53      0.0000     0.0000E+00    0.0000E+00    5.010000E+06  0.05000  3.072E-02    0   0.9147   age055_m72            0.0000     1.3879E-04    14.0776   3.0338   109.2533
 54      0.0000     0.0000E+00    0.0000E+00    6.610000E+06  0.05000  1.455E-02    0   0.8877   age061_m72            0.0000     2.6232E-04    21.0028   2.2734   114.3047
 55      0.0000     0.0000E+00    0.0000E+00    1.000000E+07  0.05000  9.074E-03    0   0.8524   age070_m72            0.0000     1.5221E-04    14.5839   3.1888   109.4451
 56      0.0000     0.0000E+00    0.0000E+00    2.512000E+07  0.05000  4.250E-03    0   0.7902   age090_m72            0.0000     1.3684E-04    14.0717   2.8996   111.5264
 57      0.0000     0.0000E+00    0.0000E+00    4.000000E+07  0.05000  3.087E-03    0   0.7618   age104_m72            0.0000     1.3807E-04    14.2844   2.6680   113.5286
 58      0.0000     0.0000E+00    0.0000E+00    1.015200E+08  0.05000  1.700E-03    0   0.7096   age116_m72            0.0000     1.0742E-04    12.2917   2.4154   117.1600
 59      0.0000     0.0000E+00    0.0000E+00    2.861200E+08  0.05000  7.384E-04    0   0.6633   age125_m72            0.0000     7.3911E-05     9.8582   1.8773   123.8635
 60      0.0000     0.0000E+00    0.0000E+00    5.088000E+08  0.05000  3.819E-04    0   0.6372   age130_m72            0.0000     5.2855E-05     8.4815   1.3821   126.3112
 61      0.1759     8.6578E-03    1.0410E-02    9.047900E+08  0.05000  1.676E-04    0   0.6110   age135_m72            0.0000     3.4857E-05     7.0849   0.6908   124.1419
 62      0.0000     0.0000E+00    0.0000E+00    1.434000E+09  0.05000  8.837E-05    0   0.5874   age139_m72            0.0000     3.3071E-05     6.9380   0.2285   123.6913
 63      0.0000     0.0000E+00    0.0000E+00    2.500000E+09  0.05000  4.233E-05    0   0.5598   age150_m72            0.0000     2.5120E-05     5.8381  -0.0819   122.3819
 64      0.0000     0.0000E+00    0.0000E+00    6.250000E+09  0.05000  1.435E-05    0   0.5249   age166_m72            0.0000     2.1567E-05     5.3148  -0.5363   120.9095
 65     37.0304     4.6912E+01    4.6494E+01    1.300000E+10  0.05000  6.513E-06    0   0.5036   age193_m72            0.0000     2.2753E-05     5.3555  -0.8259   122.5513
 66      0.0000     0.0000E+00    0.0000E+00    1.800000E+10  0.05000  4.527E-06    0   0.4945   age213_m72            0.0000     2.5481E-05     5.6395  -0.9926   122.5597


## Synthesis Results - Average & Chains ##

# j      x_j: min, <> & last-chain-values for 1 ...  7 chains
  1      0.0000      1.7494      0.2995      2.8105      0.0000      0.4154      2.1289      3.2003      1.2743
  2      0.0000      1.2602      2.1774      0.0000      0.0000      0.0108      0.6040      0.6167      0.6335
  3      0.0000      1.6432      0.3783      7.5997      0.8243      2.9528      0.5389      0.0000      0.9109
  4      0.0000      0.9553      0.2309      3.1968      0.0000      2.2095      1.8935      2.1811      0.0000
  5      0.0000      1.8004      0.2524      2.6829      7.0398      2.2931      0.3291      0.5821      0.0000
  6      0.0000      1.8164      1.0332      0.0000      2.0613      0.0000      2.7705      5.5067      2.6000
  7      0.0000      1.9067      2.1831      1.8162      0.0000      2.5298      3.0112      2.2077      3.7487
  8      0.0000      1.7898      1.5469      1.7040      2.5892      0.0000      0.0000      2.7580      1.0949
  9      0.0000      1.4221      4.6131      0.0376      0.0000      0.0000      0.0000      4.0862      4.5408
 10      0.0000      1.5276      2.8789      4.7294      2.2557      0.0000      1.6796      0.0000      4.3767
 11      0.0000      1.7653      1.2764      2.2723      2.5749      1.3082      0.0000      2.0171      0.3768
 12      0.0000      1.2210      5.2818      3.1418      0.6949      0.7531      0.3811      0.0000      0.0000
 13      0.0000      1.5897      0.0000      0.0063      0.4474      5.5362      1.7552      1.2960      4.2234
 14      0.2346      1.2187      6.4985      1.3235      0.0000      4.6856      0.0000      0.8764      3.8847
 15      0.0000      1.7534      0.0000      4.2877      3.2194      3.3155      0.0000      0.7711      0.0000
 16      0.0000      3.5141      0.8873      0.5377      2.4691      0.0000      0.3368      0.0000      0.5430
 17      0.0000      1.1050      0.0000      0.0000      1.5097      0.0000      0.4640      0.0000      0.0000
 18      0.0000      1.3311      4.3669      1.0703      0.0000      0.2434      0.0000      0.6551      1.5874
 19      1.1761      1.9028      0.2439      1.0622      0.0000      0.0000      3.3316      0.6011      0.0000
 20      0.0000      1.2845      1.0877      1.0581      0.0000      4.2306      3.2162      0.0000      0.0000
 21      0.0000      1.8465      6.2479      1.5562      2.6147      1.3827      0.0000      2.0042      2.2847
 22      0.0000      2.0247      1.2696      1.0002      5.8015      1.5395      3.0452      3.1334      0.1873
 23      0.0000      1.8178      0.1991      0.9276      0.0000      3.2546      4.0302      0.0000      0.4129
 24      1.1550      1.8828      0.9072      1.9238      5.4135      0.0000      1.2232      2.9617      2.3404
 25      0.0947      1.3931      2.7570      3.8504      0.0000      2.3708      0.0000      0.5721      7.3558
 26      0.0000      1.5998      0.3179      0.5715      1.3280      3.9650      0.0000      5.3321      0.0000
 27      2.3372      1.7815      0.9465      1.1993      5.8576      2.2305      0.9713      4.8768      3.7653
 28      0.0000      1.5231      0.0000      0.0802      5.1698      3.4542      0.0000      7.8669      0.0000
 29      0.0000      1.2195      0.5073      0.9822      1.3269      0.0000      0.0000      0.0000      0.3973
 30      0.0000      1.1543      0.3512      5.1341      0.0000      6.0747      0.0000      0.0000      0.4184
 31      0.0000      1.2595      3.6723      0.7683      0.0000      0.7810      0.3715      7.5091      0.2138
 32      0.0000      1.8188      1.6666      0.0000      0.0000      1.7662      1.4053      1.4638      0.7072
 33      0.0000      1.8117      0.0000      0.0000      2.4382      0.0000      1.8914      0.0000      0.0320
 34      3.0350      3.0724      0.1885      1.2047      5.0471      0.0000      1.5675      1.0162      2.8759
 35      0.0000      1.1920      2.1190      2.0945      1.4439      2.3702      3.7622      2.7809      0.0000
 36      0.0000      1.7619      3.5907      3.7016      5.3635      2.2609      6.0958      2.2689      0.0000
 37      0.0000      2.0489      0.0000      0.8630      6.7537      1.1931      8.0450      0.0000      0.0000
 38      0.0000      1.7363      1.0226      0.7397      0.0000      4.9125      5.5785      0.6556      2.0420
 39      0.0000      1.3700      0.5568      0.0000      2.6221      4.6181      0.0000      0.6040      1.9269
 40      0.0000      1.1226      0.3128      2.5802      0.0000      1.2227      2.1041      0.0186      0.0000
 41      0.0000      1.3428      0.0000      0.0000      4.3650      0.0751      0.0000      0.3227      4.8029
 42      0.0000      1.5775      3.1978      1.7701      0.3390      9.6838      0.0000      2.4407      3.2659
 43      0.0000      2.1073      1.6144      4.0208      2.0206      1.0292      0.4212      0.0000      1.5756
 44      0.6904      1.8385      0.2920      3.0037      0.0000      3.8449      0.9935      5.7351      2.7222
 45      0.0000      1.3330      3.8094      0.0000      3.1960      2.7044      4.5671      0.8305      0.4016
 46      0.0000      1.4471      1.1087      0.8947      2.7807      1.2417      3.3040      0.5103      0.0000
 47      6.1389      1.1434      0.0379      2.8945      1.2229      0.3493      6.4162      1.4916      0.0000
 48      0.0000      1.9120      0.7124      3.2576      4.9101      0.0000      0.3612      0.0000      0.0000
 49     55.3950      1.4958      4.4110      1.2889      0.8289      0.0000      3.9128      4.2119      1.6608
 50     13.8371      1.7278      0.3291      0.0000      1.4610      1.8449      1.1739      2.7388      1.2649
 51      0.0000      2.4607      4.0678      1.7366      0.6570      1.3731      2.3727      0.7965      5.0606
 52      0.0000      1.5620      1.3327      2.5330      0.0000      0.0000      0.0000      0.1803      0.0000
 53      0.0000      1.4751      0.1390      3.9660      0.9146      1.9329      0.0000      1.6612      1.4861
 54      0.0000      1.4352      0.0300      0.3102      0.0000      1.8768      0.4221      4.0677      2.0236
 55      0.0000      2.0002      0.0000      0.0036      0.3020      0.0000      1.0701      0.0000      0.1288
 56      0.0000      1.6122      7.2118      0.0000      1.2069      1.0870      2.6061      5.0103      0.5768
 57      0.0000      1.7415      3.1012      0.0000      0.0000      3.4381      1.2317      0.4196      5.0495
 58      0.0000      1.0171      0.4225      6.2216      2.0683      0.8722      0.0000      0.0000      0.0000
 59      0.0000      1.4382      2.9632      0.0000      3.2981      1.3298      2.6416      7.2297      2.5459
 60      0.0000      1.4829      0.0000      0.0000      0.5633      0.0000      3.4064      0.2328      2.6514
 61      0.1759      1.7636      0.0000      3.4986      0.0000      0.0000      1.3337      0.6072      2.8464
 62      0.0000      1.7423      0.3022      1.5347      1.3071      0.9777      7.9708      0.3621      2.8850
 63      0.0000      2.2969      7.3067      0.0000      0.0879      0.0000      0.0000      2.0022      6.4976
 64      0.0000      1.2919      0.1445      0.3923      1.1919      2.4088      0.0000      0.0000      0.0000
 65     37.0304      1.5346      0.4758      0.6886      0.3737      1.3486      1.4487      1.3235      0.0000
 66      0.0000      1.8553      0.1806      3.7880      0.0000      2.5054      0.0000      0.0000      2.5038

# j      m_j: min, <> & last-chain-values for 1 ...  7 chains
  1  0.0000E+00  1.4318E-02  4.8252E-03  2.9861E-02  0.0000E+00  4.5425E-03  2.7137E-02  3.9500E-02  1.4687E-02
  2  0.0000E+00  2.8159E-03  9.5749E-03  0.0000E+00  0.0000E+00  3.2208E-05  2.1018E-03  2.0781E-03  1.9934E-03
  3  0.0000E+00  5.4984E-03  2.4910E-03  3.3010E-02  3.5386E-03  1.3199E-02  2.8085E-03  0.0000E+00  4.2919E-03
  4  0.0000E+00  3.0102E-03  1.4320E-03  1.3076E-02  0.0000E+00  9.3008E-03  9.2922E-03  1.0364E-02  0.0000E+00
  5  0.0000E+00  1.0807E-02  2.9819E-03  2.0904E-02  5.4210E-02  1.8387E-02  3.0760E-03  5.2692E-03  0.0000E+00
  6  0.0000E+00  1.7684E-02  1.9797E-02  0.0000E+00  2.5745E-02  0.0000E+00  4.2007E-02  8.0846E-02  3.5645E-02
  7  0.0000E+00  2.6577E-02  5.9886E-02  3.2861E-02  0.0000E+00  4.7105E-02  6.5367E-02  4.6404E-02  7.3580E-02
  8  0.0000E+00  3.4481E-02  5.8650E-02  4.2614E-02  6.3993E-02  0.0000E+00  0.0000E+00  8.0126E-02  2.9704E-02
  9  0.0000E+00  3.1359E-02  2.0019E-01  1.0765E-03  0.0000E+00  0.0000E+00  0.0000E+00  1.3588E-01  1.4099E-01
 10  0.0000E+00  4.4247E-02  1.6411E-01  1.7782E-01  8.3816E-02  0.0000E+00  7.5766E-02  0.0000E+00  1.7851E-01
 11  0.0000E+00  9.6143E-02  1.3681E-01  1.6065E-01  1.7990E-01  9.5181E-02  0.0000E+00  1.6567E-01  2.8895E-02
 12  0.0000E+00  1.0549E-01  8.9805E-01  3.5234E-01  7.7012E-02  8.6910E-02  5.1273E-02  0.0000E+00  0.0000E+00
 13  0.0000E+00  3.8710E-01  0.0000E+00  2.0035E-03  1.3978E-01  1.8009E+00  6.6563E-01  4.7590E-01  1.4482E+00
 14  3.4749E-02  9.9540E-01  1.0446E+01  1.4032E+00  0.0000E+00  5.1123E+00  0.0000E+00  1.0795E+00  4.4678E+00
 15  0.0000E+00  2.3313E+00  0.0000E+00  7.4005E+00  5.4915E+00  5.8890E+00  0.0000E+00  1.5461E+00  0.0000E+00
 16  0.0000E+00  7.9002E+00  3.9257E+00  1.5692E+00  7.1211E+00  0.0000E+00  1.1793E+00  0.0000E+00  1.7189E+00
 17  0.0000E+00  3.2226E+00  0.0000E+00  0.0000E+00  5.6483E+00  0.0000E+00  2.1076E+00  0.0000E+00  0.0000E+00
 18  0.0000E+00  9.6279E-03  6.2161E-02  1.0049E-02  0.0000E+00  2.3513E-03  0.0000E+00  7.1449E-03  1.6167E-02
 19  6.1915E-04  5.5239E-03  1.3935E-03  4.0028E-03  0.0000E+00  0.0000E+00  1.5062E-02  2.6312E-03  0.0000E+00
 20  0.0000E+00  4.0708E-03  6.7843E-03  4.3529E-03  0.0000E+00  1.7911E-02  1.5874E-02  0.0000E+00  0.0000E+00
 21  0.0000E+00  7.1037E-03  4.7304E-02  7.7715E-03  1.2904E-02  7.1058E-03  0.0000E+00  1.1627E-02  1.2377E-02
 22  0.0000E+00  1.3171E-02  1.6254E-02  8.4457E-03  4.8416E-02  1.3379E-02  3.0851E-02  3.0738E-02  1.7160E-03
 23  0.0000E+00  1.5969E-02  3.4424E-03  1.0577E-02  0.0000E+00  3.8194E-02  5.5138E-02  0.0000E+00  5.1074E-03
 24  2.7374E-03  2.4608E-02  2.3334E-02  3.2637E-02  9.0765E-02  0.0000E+00  2.4897E-02  5.8371E-02  4.3073E-02
 25  3.0957E-04  2.5105E-02  9.7780E-02  9.0073E-02  0.0000E+00  5.7075E-02  0.0000E+00  1.5548E-02  1.8667E-01
 26  0.0000E+00  4.8189E-02  1.8845E-02  2.2347E-02  5.1317E-02  1.5955E-01  0.0000E+00  2.4221E-01  0.0000E+00
 27  2.5555E-02  1.0741E-01  1.1231E-01  9.3867E-02  4.5308E-01  1.7965E-01  9.1203E-02  4.4341E-01  3.1969E-01
 28  0.0000E+00  2.6651E-01  0.0000E+00  1.8223E-02  1.1605E+00  8.0742E-01  0.0000E+00  2.0758E+00  0.0000E+00
 29  0.0000E+00  3.7181E-01  3.0439E-01  3.8871E-01  5.1900E-01  0.0000E+00  0.0000E+00  0.0000E+00  1.7058E-01
 30  0.0000E+00  7.3525E-01  4.4029E-01  4.2452E+00  0.0000E+00  5.1692E+00  0.0000E+00  0.0000E+00  3.7533E-01
 31  0.0000E+00  1.4113E+00  8.0983E+00  1.1176E+00  0.0000E+00  1.1690E+00  6.4837E-01  1.2689E+01  3.3738E-01
 32  0.0000E+00  2.7421E+00  4.9452E+00  0.0000E+00  0.0000E+00  3.5572E+00  3.2996E+00  3.3280E+00  1.5014E+00
 33  0.0000E+00  6.0467E+00  0.0000E+00  0.0000E+00  1.0440E+01  0.0000E+00  9.8312E+00  0.0000E+00  1.5035E-01
 34  2.4875E+00  1.3886E+01  1.6766E+00  7.0677E+00  2.9264E+01  0.0000E+00  1.1034E+01  6.9264E+00  1.8304E+01
 35  0.0000E+00  6.9130E-03  2.4185E-02  1.5768E-02  1.0742E-02  1.8363E-02  3.3980E-02  2.4320E-02  0.0000E+00
 36  0.0000E+00  4.1340E-03  1.6581E-02  1.1274E-02  1.6145E-02  7.0869E-03  2.2275E-02  8.0281E-03  0.0000E+00
 37  0.0000E+00  5.1999E-03  0.0000E+00  2.8433E-03  2.1989E-02  4.0452E-03  3.1798E-02  0.0000E+00  0.0000E+00
 38  0.0000E+00  1.1938E-02  1.3837E-02  6.6017E-03  0.0000E+00  4.5120E-02  5.9734E-02  6.7978E-03  1.9770E-02
 39  0.0000E+00  1.3562E-02  1.0848E-02  0.0000E+00  3.3300E-02  6.1073E-02  0.0000E+00  9.0176E-03  2.6861E-02
 40  0.0000E+00  1.7963E-02  9.8496E-03  5.3597E-02  0.0000E+00  2.6137E-02  5.2437E-02  4.4954E-04  0.0000E+00
 41  0.0000E+00  3.3413E-02  0.0000E+00  0.0000E+00  1.3934E-01  2.4956E-03  0.0000E+00  1.2109E-02  1.6830E-01
 42  0.0000E+00  7.2071E-02  2.8753E-01  1.0498E-01  1.9867E-02  5.9102E-01  0.0000E+00  1.6816E-01  2.1011E-01
 43  0.0000E+00  1.4056E-01  2.1193E-01  3.4814E-01  1.7291E-01  9.1707E-02  4.3753E-02  0.0000E+00  1.4799E-01
 44  1.4379E-02  2.1115E-01  6.5998E-02  4.4781E-01  0.0000E+00  5.8989E-01  1.7771E-01  9.9328E-01  4.4024E-01
 45  0.0000E+00  3.0375E-01  1.7084E+00  0.0000E+00  9.3430E-01  8.2327E-01  1.6208E+00  2.8539E-01  1.2887E-01
 46  0.0000E+00  6.0612E-01  9.1391E-01  4.8648E-01  1.4942E+00  6.9481E-01  2.1553E+00  3.2229E-01  0.0000E+00
 47  9.4487E-01  9.7045E-01  6.3331E-02  3.1890E+00  1.3315E+00  3.9606E-01  8.4811E+00  1.9091E+00  0.0000E+00
 48  0.0000E+00  2.8619E+00  2.0986E+00  6.3296E+00  9.4286E+00  0.0000E+00  8.4203E-01  0.0000E+00  0.0000E+00
 49  3.4174E+01  5.0885E+00  2.9533E+01  5.6917E+00  3.6173E+00  0.0000E+00  2.0731E+01  2.1608E+01  7.9561E+00
 50  1.5811E+01  1.0887E+01  4.0811E+00  0.0000E+00  1.1809E+01  1.5529E+01  1.1520E+01  2.6023E+01  1.1223E+01
 51  0.0000E+00  8.4987E-03  2.7651E-02  7.7860E-03  2.9111E-03  6.3353E-03  1.2763E-02  4.1485E-03  2.4613E-02
 52  0.0000E+00  2.7646E-03  4.6421E-03  5.8198E-03  0.0000E+00  0.0000E+00  0.0000E+00  4.8125E-04  0.0000E+00
 53  0.0000E+00  3.9328E-03  7.2913E-04  1.3726E-02  3.1282E-03  6.8844E-03  0.0000E+00  6.6790E-03  5.5794E-03
 54  0.0000E+00  7.8407E-03  3.2296E-04  2.1995E-03  0.0000E+00  1.3697E-02  3.5913E-03  3.3511E-02  1.5567E-02
 55  0.0000E+00  1.6825E-02  0.0000E+00  3.9558E-05  3.2587E-03  0.0000E+00  1.4018E-02  0.0000E+00  1.5256E-03
 56  0.0000E+00  2.6841E-02  2.3630E-01  0.0000E+00  2.5776E-02  2.4175E-02  6.7572E-02  1.2579E-01  1.3523E-02
 57  0.0000E+00  3.8481E-02  1.3487E-01  0.0000E+00  0.0000E+00  1.0149E-01  4.2388E-02  1.3982E-02  1.5712E-01
 58  0.0000E+00  3.8017E-02  3.1075E-02  3.0186E-01  9.9171E-02  4.3547E-02  0.0000E+00  0.0000E+00  0.0000E+00
 59  0.0000E+00  1.1568E-01  4.6908E-01  0.0000E+00  3.4033E-01  1.4289E-01  3.3091E-01  8.7694E-01  2.8836E-01
 60  0.0000E+00  2.2154E-01  0.0000E+00  0.0000E+00  1.0797E-01  0.0000E+00  7.9258E-01  5.2455E-02  5.5781E-01
 61  1.0410E-02  5.7570E-01  0.0000E+00  1.4825E+00  0.0000E+00  0.0000E+00  6.7805E-01  2.9891E-01  1.3084E+00
 62  0.0000E+00  1.0370E+00  3.5393E-01  1.1857E+00  9.9805E-01  7.7738E-01  7.3885E+00  3.2500E-01  2.4180E+00
 63  0.0000E+00  2.7199E+00  1.7028E+01  0.0000E+00  1.3357E-01  0.0000E+00  0.0000E+00  3.5754E+00  1.0835E+01
 64  0.0000E+00  4.2313E+00  9.3131E-01  1.6679E+00  5.0081E+00  1.0540E+01  0.0000E+00  0.0000E+00  0.0000E+00
 65  4.6494E+01  1.0625E+01  6.4827E+00  6.1890E+00  3.3193E+00  1.2473E+01  1.5621E+01  1.3819E+01  0.0000E+00
 66  0.0000E+00  1.8147E+01  3.4759E+00  4.8095E+01  0.0000E+00  3.2736E+01  0.0000E+00  0.0000E+00  3.4486E+01

# AV, chi2 & Mass for <> & i_chain = 1 ...  7 solutions
AV      -0.4902      1.7665      1.6755      1.5639      1.4397      1.4602      1.5841      1.5314      1.5996
chi2 2.2110E-05  3.0160E-04  1.2614E-04  1.1754E-04  1.1183E-04  1.1164E-04  1.2354E-04  1.0897E-04  1.2766E-04
Mass 1.1051E-12  4.1518E-12  1.8667E-12  2.4362E-12  2.0865E-12  2.0596E-12  2.0865E-12  2.0076E-12  2.3562E-12
 -84.05                                  [v0_min (km/s) before EX0s...]
 303.90                                  [vd_min (km/s) before EX0s...]


## Synthetic spectrum (Best Model) ##l_obs f_obs f_syn wei
 3478    [Nl_obs]
 3741.00    0.49341   0.49261    0.000
 3742.00    0.50119   0.48320    0.000
 3743.00    0.44680   0.47323    0.000
 3744.00    0.41056   0.46078    0.000
 3745.00    0.38488   0.44983    0.081
 3746.00    0.42932   0.44864    0.079
 3747.00    0.50938   0.45384    0.075
 3748.00    0.45932   0.46509    0.078
 3749.00    0.35205   0.48634    0.085
 3750.00    0.34887   0.51210    0.082
 3751.00    0.38498   0.53639    0.075
 3752.00    0.43101   0.55907    0.073
 3753.00    0.48023   0.57722    0.072
 3754.00    0.50461   0.58666    0.072
 3755.00    0.52232   0.58939    0.072
 3756.00    0.54372   0.58621    0.072
 3757.00    0.56593   0.57835    0.072
 3758.00    0.52031   0.57167    0.073
 3759.00    0.46285   0.56446    0.074
 3760.00    0.46038   0.55766    0.101
 3761.00    0.46522   0.55797    0.174
 3762.00    0.45113   0.55952    0.105
 3763.00    0.43527   0.56173    0.071
 3764.00    0.43485   0.57207    0.069
 3765.00    0.43532   0.58323    0.069
 3766.00    0.50561   0.59387    0.071
 3767.00    0.57675   0.61274    0.074
 3768.00    0.55086   0.63294    0.072
 3769.00    0.52640   0.64929    0.070
 3770.00    0.53648   0.66917    0.070
 3771.00    0.54291   0.68960    0.069
 3772.00    0.50151   0.70503    0.068
 3773.00    0.46651   0.71929    0.068
 3774.00    0.48779   0.73259    0.067
 3775.00    0.50991   0.74417    0.067
 3776.00    0.53746   0.75429    0.068
 3777.00    0.55444   0.76126    0.069
 3778.00    0.51796   0.76736    0.068
 3779.00    0.49679   0.77091    0.067
 3780.00    0.53833   0.76824    0.068
 3781.00    0.56211   0.76099    0.068
 3782.00    0.52565   0.74832    0.068
 3783.00    0.47621   0.73082    0.068
 3784.00    0.38961   0.70899    0.067
 3785.00    0.34338   0.68304    0.067
 3786.00    0.39576   0.65912    0.067
 3787.00    0.44051   0.63728    0.068
 3788.00    0.46920   0.61463    0.073
 3789.00    0.48508   0.59636    0.074
 3790.00    0.47753   0.58345    0.071
 3791.00    0.47148   0.57033    0.069
 3792.00    0.46786   0.55906    0.068
 3793.00    0.45103   0.55231    0.068
 3794.00    0.41564   0.54664    0.067
 3795.00    0.40066   0.54486    0.067
 3796.00    0.41091   0.54863    0.066
 3797.00    0.41754   0.55551    0.067
 3798.00    0.42024   0.56836    0.069
 3799.00    0.43132   0.58644    0.070
 3800.00    0.45046   0.60425    0.070
 3801.00    0.49928   0.62259    0.071
 3802.00    0.57326   0.64140    0.074
 3803.00    0.62092   0.65531    0.075
 3804.00    0.64895   0.66546    0.075
 3805.00    0.60134   0.67221    0.073
 3806.00    0.50415   0.67287    0.069
 3807.00    0.42009   0.67099    0.068
 3808.00    0.34356   0.66498    0.067
 3809.00    0.38239   0.65243    0.068
 3810.00    0.47886   0.63816    0.071
 3811.00    0.53613   0.62044    0.076
 3812.00    0.57645   0.59770    0.085
 3813.00    0.56131   0.57580    0.079
 3814.00    0.52560   0.55329    0.069
 3815.00    0.48311   0.52963    0.066
 3816.00    0.43849   0.51036    0.066
 3817.00    0.45368   0.49291    0.073
 3818.00    0.48456   0.47561    0.087
 3819.00    0.50600   0.46133    0.078
 3820.00    0.52541   0.44908    0.068
 3821.00    0.51922   0.43789    0.066
 3822.00    0.50869   0.42713    0.066
 3823.00    0.48624   0.41723    0.066
 3824.00    0.46225   0.40998    0.066
 3825.00    0.43045   0.40367    0.065
 3826.00    0.39795   0.39770    0.064
 3827.00    0.40297   0.39341    0.071
 3828.00    0.41001   0.38985    0.081
 3829.00    0.38192   0.38769    0.075
 3830.00    0.35341   0.38601    0.070
 3831.00    0.34880   0.38366    0.068
 3832.00    0.34679   0.38372    0.067
 3833.00    0.40263   0.38494    0.067
 3834.00    0.45334   0.38660    0.067
 3835.00    0.44018   0.39235    0.068
 3836.00    0.43102   0.40006    0.069
 3837.00    0.45568   0.40983    0.078
 3838.00    0.48412   0.42533    0.086
 3839.00    0.53637   0.44218    0.078
 3840.00    0.56711   0.45993    0.071
 3841.00    0.49173   0.48163    0.069
 3842.00    0.41983   0.50126    0.068
 3843.00    0.36185   0.51798    0.068
 3844.00    0.31080   0.53365    0.070
 3845.00    0.28279   0.54409    0.072
 3846.00    0.28972   0.55035    0.074
 3847.00    0.39475   0.55415    0.000
 3848.00    0.45085   0.55333    0.000
 3849.00    0.38943   0.54932    0.000
 3850.00    0.34893   0.54523    0.000
 3851.00    0.35181   0.53887    0.000
 3852.00    0.35615   0.52871    0.000
 3853.00    0.36311   0.51998    0.000
 3854.00    0.35425   0.51199    0.000
 3855.00    0.32042   0.50210    0.000
 3856.00    0.31677   0.49615    0.000
 3857.00    0.35488   0.49370    0.000
 3858.00    0.40958   0.49279    0.000
 3859.00    0.48448   0.49682    0.000
 3860.00    0.55763   0.50403    0.000
 3861.00    0.62888   0.51199    0.000
 3862.00    0.62983   0.51996    0.000
 3863.00    0.56416   0.52639    0.000
 3864.00    0.49504   0.53041    0.000
 3865.00    0.42303   0.53184    0.000
 3866.00    0.41814   0.53034    0.000
 3867.00    0.46263   0.52699    0.000
 3868.00    0.50384   0.52407    0.000
 3869.00    0.54295   0.52147    0.000
 3870.00    0.54104   0.52062    0.000
 3871.00    0.51595   0.52171    0.000
 3872.00    0.49721   0.52324    0.000
 3873.00    0.48159   0.52660    0.000
 3874.00    0.46980   0.52945    0.000
 3875.00    0.45963   0.53057    0.000
 3876.00    0.44115   0.53107    0.000
 3877.00    0.41964   0.52949    0.000
 3878.00    0.41619   0.52851    0.000
 3879.00    0.41831   0.52799    0.000
 3880.00    0.39296   0.52599    0.000
 3881.00    0.36054   0.52591    0.071
 3882.00    0.45637   0.52906    0.070
 3883.00    0.57901   0.53442    0.068
 3884.00    0.62868   0.53975    0.071
 3885.00    0.66631   0.54799    0.075
 3886.00    0.66607   0.56334    0.074
 3887.00    0.66114   0.58015    0.071
 3888.00    0.61721   0.59756    0.069
 3889.00    0.56994   0.61904    0.068
 3890.00    0.61056   0.64093    0.071
 3891.00    0.65556   0.66008    0.074
 3892.00    0.63748   0.67667    0.072
 3893.00    0.61825   0.69010    0.070
 3894.00    0.59146   0.69843    0.069
 3895.00    0.56797   0.70463    0.068
 3896.00    0.61189   0.70842    0.068
 3897.00    0.65236   0.70792    0.068
 3898.00    0.65205   0.70769    0.065
 3899.00    0.64406   0.70681    0.063
 3900.00    0.57353   0.70702    0.062
 3901.00    0.50642   0.70710    0.061
 3902.00    0.46015   0.70721    0.059
 3903.00    0.42359   0.71474    0.057
 3904.00    0.43380   0.72215    0.055
 3905.00    0.44522   0.73068    0.054
 3906.00    0.46144   0.74681    0.055
 3907.00    0.48073   0.76175    0.056
 3908.00    0.51000   0.77593    0.057
 3909.00    0.53759   0.79017    0.058
 3910.00    0.56056   0.79974    0.060
 3911.00    0.58386   0.80568    0.061
 3912.00    0.60793   0.80510    0.062
 3913.00    0.63423   0.79806    0.063
 3914.00    0.66507   0.78739    0.063
 3915.00    0.68102   0.77040    0.065
 3916.00    0.67052   0.74978    0.068
 3917.00    0.66080   0.72808    0.069
 3918.00    0.65229   0.70408    0.068
 3919.00    0.66041   0.67909    0.067
 3920.00    0.69124   0.65513    0.067
 3921.00    0.68137   0.63123    0.068
 3922.00    0.62262   0.60516    0.068
 3923.00    0.58151   0.57910    0.068
 3924.00    0.55906   0.55057    0.068
 3925.00    0.56327   0.51880    0.069
 3926.00    0.59239   0.48680    0.073
 3927.00    0.60886   0.45287    0.073
 3928.00    0.61493   0.42056    0.071
 3929.00    0.57934   0.39226    0.070
 3930.00    0.51356   0.36881    0.070
 3931.00    0.47640   0.35347    0.071
 3932.00    0.45744   0.34654    0.072
 3933.00    0.47119   0.34898    0.073
 3934.00    0.50314   0.36011    0.074
 3935.00    0.56327   0.37860    0.073
 3936.00    0.63704   0.40383    0.072
 3937.00    0.64913   0.43248    0.072
 3938.00    0.63542   0.46310    0.071
 3939.00    0.61077   0.49556    0.071
 3940.00    0.58221   0.52711    0.072
 3941.00    0.60231   0.55798    0.071
 3942.00    0.63713   0.58830    0.070
 3943.00    0.61758   0.61675    0.070
 3944.00    0.58437   0.64667    0.069
 3945.00    0.62472   0.67669    0.069
 3946.00    0.68006   0.70168    0.069
 3947.00    0.69881   0.72573    0.070
 3948.00    0.71171   0.74997    0.070
 3949.00    0.74018   0.76820    0.070
 3950.00    0.77051   0.78123    0.070
 3951.00    0.81503   0.78928    0.071
 3952.00    0.86071   0.79188    0.072
 3953.00    0.82270   0.79135    0.071
 3954.00    0.78084   0.78155    0.070
 3955.00    0.74174   0.76256    0.069
 3956.00    0.70391   0.74124    0.068
 3957.00    0.72998   0.71347    0.070
 3958.00    0.75300   0.67827    0.071
 3959.00    0.71828   0.63899    0.069
 3960.00    0.68431   0.59532    0.000
 3961.00    0.65870   0.55190    0.000
 3962.00    0.63845   0.51018    0.000
 3963.00    0.66036   0.46941    0.000
 3964.00    0.67428   0.43474    0.000
 3965.00    0.64077   0.40837    0.000
 3966.00    0.59852   0.39114    0.000
 3967.00    0.51522   0.38457    0.000
 3968.00    0.46215   0.38923    0.000
 3969.00    0.52492   0.40632    0.000
 3970.00    0.57526   0.43407    0.000
 3971.00    0.58591   0.47120    0.000
 3972.00    0.60106   0.51591    0.000
 3973.00    0.62842   0.56515    0.000
 3974.00    0.67980   0.61778    0.000
 3975.00    0.78694   0.66891    0.000
 3976.00    0.86362   0.71744    0.000
 3977.00    0.87913   0.76362    0.000
 3978.00    0.88076   0.80351    0.000
 3979.00    0.85813   0.83905    0.000
 3980.00    0.85954   0.86841    0.000
 3981.00    0.89778   0.89218    0.074
 3982.00    0.92518   0.91534    0.074
 3983.00    0.93801   0.93266    0.074
 3984.00    0.94921   0.94807    0.073
 3985.00    0.95849   0.96369    0.074
 3986.00    0.94474   0.97540    0.074
 3987.00    0.90695   0.98859    0.073
 3988.00    0.91430   0.99788    0.073
 3989.00    0.96322   1.00383    0.073
 3990.00    0.96644   1.01196    0.073
 3991.00    0.93256   1.01583    0.072
 3992.00    0.94610   1.01873    0.072
 3993.00    0.99350   1.02323    0.072
 3994.00    1.02353   1.02655    0.072
 3995.00    1.04264   1.03054    0.071
 3996.00    1.02773   1.03568    0.071
 3997.00    0.99416   1.04165    0.071
 3998.00    1.04337   1.04797    0.070
 3999.00    1.13202   1.05152    0.070
 4000.00    1.13269   1.05373    0.071
 4001.00    1.09720   1.05698    0.072
 4002.00    1.05794   1.05819    0.072
 4003.00    1.01735   1.05701    0.071
 4004.00    1.00935   1.05583    0.071
 4005.00    1.01100   1.05879    0.071
 4006.00    1.04844   1.06538    0.071
 4007.00    1.09468   1.07302    0.071
 4008.00    1.14992   1.08270    0.071
 4009.00    1.20696   1.09568    0.072
 4010.00    1.12864   1.10969    0.070
 4011.00    1.02928   1.12070    0.069
 4012.00    1.00000   1.13190    0.068
 4013.00    0.97877   1.14227    0.068
 4014.00    1.02190   1.14949    0.068
 4015.00    1.07001   1.15589    0.069
 4016.00    1.05558   1.15879    0.070
 4017.00    1.03852   1.16116    0.071
 4018.00    1.03718   1.16321    0.071
 4019.00    1.03483   1.16132    0.070
 4020.00    0.98192   1.15974    0.069
 4021.00    0.93679   1.15763    0.068
 4022.00    1.02878   1.15402    0.069
 4023.00    1.12554   1.14826    0.069
 4024.00    1.27348   1.13796    0.070
 4025.00    1.39432   1.12767    0.072
 4026.00    1.30937   1.11511    0.072
 4027.00    1.21188   1.09807    0.072
 4028.00    1.04203   1.08196    0.073
 4029.00    0.90433   1.06499    0.073
 4030.00    0.91400   1.05231    0.072
 4031.00    0.90436   1.04777    0.071
 4032.00    0.82227   1.04553    0.069
 4033.00    0.77322   1.05103    0.068
 4034.00    0.82773   1.06258    0.068
 4035.00    0.88818   1.07552    0.069
 4036.00    0.96438   1.09047    0.070
 4037.00    1.01214   1.09920    0.071
 4038.00    0.99493   1.10071    0.071
 4039.00    0.96456   1.09668    0.071
 4040.00    0.90815   1.08604    0.071
 4041.00    0.90523   1.07397    0.071
 4042.00    0.99446   1.05885    0.072
 4043.00    1.03239   1.04315    0.072
 4044.00    0.99295   1.03507    0.072
 4045.00    0.97885   1.03347    0.072
 4046.00    0.99832   1.03850    0.072
 4047.00    1.03325   1.04812    0.073
 4048.00    1.08623   1.05854    0.074
 4049.00    1.11754   1.07085    0.075
 4050.00    1.12656   1.08177    0.076
 4051.00    1.07329   1.08521    0.075
 4052.00    0.96347   1.08393    0.073
 4053.00    0.93398   1.07997    0.072
 4054.00    0.96879   1.07102    0.072
 4055.00    0.94540   1.06086    0.072
 4056.00    0.88104   1.04781    0.071
 4057.00    0.95644   1.03310    0.072
 4058.00    1.11818   1.02274    0.073
 4059.00    1.14953   1.01359    0.074
 4060.00    1.11053   1.00331    0.074
 4061.00    1.03607   0.99574    0.073
 4062.00    0.94498   0.99262    0.071
 4063.00    0.93805   0.99362    0.071
 4064.00    0.96513   0.99849    0.071
 4065.00    0.93896   1.00228    0.071
 4066.00    0.89442   1.00800    0.070
 4067.00    0.94142   1.01857    0.071
 4068.00    1.01500   1.02558    0.072
 4069.00    1.00811   1.02933    0.071
 4070.00    0.98188   1.03124    0.070
 4071.00    1.05940   1.03171    0.070
 4072.00    1.15702   1.03549    0.071
 4073.00    1.19890   1.03691    0.071
 4074.00    1.23238   1.03792    0.071
 4075.00    1.12536   1.04456    0.074
 4076.00    1.00279   1.05330    0.077
 4077.00    1.00265   1.06666    0.079
 4078.00    1.01147   1.08364    0.081
 4079.00    1.15706   1.10070    0.082
 4080.00    1.30788   1.12071    0.083
 4081.00    1.22167   1.14063    0.082
 4082.00    1.13755   1.15911    0.081
 4083.00    1.18181   1.17773    0.082
 4084.00    1.22489   1.19338    0.082
 4085.00    1.24864   1.20713    0.080
 4086.00    1.25819   1.21805    0.078
 4087.00    1.12174   1.22436    0.074
 4088.00    1.01057   1.22675    0.070
 4089.00    1.08494   1.22183    0.070
 4090.00    1.13792   1.21259    0.070
 4091.00    1.07085   1.19866    0.069
 4092.00    1.03355   1.17831    0.000
 4093.00    1.12946   1.15572    0.000
 4094.00    1.19793   1.12889    0.000
 4095.00    1.16562   1.10193    0.000
 4096.00    1.13249   1.07898    0.000
 4097.00    1.09686   1.05763    0.000
 4098.00    1.06082   1.04036    0.000
 4099.00    1.02367   1.02943    0.000
 4100.00    0.99171   1.02490    0.000
 4101.00    0.97136   1.02766    0.000
 4102.00    0.97933   1.03665    0.000
 4103.00    1.04244   1.04838    0.000
 4104.00    1.08766   1.06246    0.000
 4105.00    1.10252   1.07884    0.000
 4106.00    1.09694   1.09317    0.000
 4107.00    1.06098   1.10642    0.000
 4108.00    1.01643   1.11798    0.000
 4109.00    0.96067   1.12648    0.000
 4110.00    0.98863   1.13473    0.000
 4111.00    1.11296   1.14085    0.000
 4112.00    1.16151   1.14544    0.000
 4113.00    1.13315   1.14910    0.071
 4114.00    1.16967   1.15113    0.071
 4115.00    1.26428   1.15126    0.072
 4116.00    1.25918   1.14997    0.071
 4117.00    1.17539   1.14805    0.071
 4118.00    1.13985   1.14500    0.070
 4119.00    1.13780   1.14311    0.071
 4120.00    1.14345   1.13969    0.067
 4121.00    1.15379   1.13595    0.062
 4122.00    1.13809   1.13297    0.061
 4123.00    1.10856   1.12803    0.062
 4124.00    1.07084   1.12225    0.061
 4125.00    1.02935   1.11373    0.061
 4126.00    1.07318   1.10324    0.062
 4127.00    1.15090   1.09344    0.063
 4128.00    1.14025   1.08361    0.066
 4129.00    1.09969   1.07401    0.070
 4130.00    1.06548   1.06846    0.070
 4131.00    1.03309   1.06432    0.070
 4132.00    1.04184   1.06604    0.069
 4133.00    1.06025   1.07181    0.068
 4134.00    1.05773   1.07621    0.068
 4135.00    1.05126   1.08310    0.069
 4136.00    1.13275   1.08571    0.070
 4137.00    1.22708   1.08651    0.072
 4138.00    1.20451   1.08544    0.071
 4139.00    1.16951   1.07826    0.070
 4140.00    1.16727   1.06907    0.069
 4141.00    1.16730   1.05805    0.069
 4142.00    1.18730   1.04858    0.070
 4143.00    1.20800   1.04245    0.071
 4144.00    1.22763   1.03864    0.071
 4145.00    1.24580   1.03676    0.071
 4146.00    1.21579   1.03522    0.071
 4147.00    1.18295   1.03592    0.072
 4148.00    1.10636   1.03733    0.070
 4149.00    1.03872   1.03862    0.068
 4150.00    1.05923   1.04122    0.069
 4151.00    1.07406   1.04200    0.070
 4152.00    1.04859   1.04547    0.071
 4153.00    1.02468   1.05008    0.071
 4154.00    1.00935   1.05709    0.070
 4155.00    1.00148   1.06808    0.069
 4156.00    1.02621   1.07924    0.068
 4157.00    1.03391   1.09295    0.068
 4158.00    0.98029   1.10514    0.068
 4159.00    0.96000   1.11637    0.067
 4160.00    1.04026   1.12583    0.067
 4161.00    1.10657   1.13105    0.067
 4162.00    1.13704   1.13354    0.067
 4163.00    1.17222   1.13086    0.068
 4164.00    1.21783   1.12335    0.067
 4165.00    1.23683   1.11424    0.067
 4166.00    1.20486   1.10265    0.067
 4167.00    1.15720   1.08988    0.068
 4168.00    1.08331   1.07683    0.068
 4169.00    1.01707   1.06109    0.067
 4170.00    0.96206   1.04782    0.067
 4171.00    0.92758   1.03663    0.067
 4172.00    0.91957   1.02802    0.067
 4173.00    0.96460   1.02385    0.068
 4174.00    1.06981   1.02053    0.071
 4175.00    1.12766   1.02064    0.072
 4176.00    1.13812   1.02400    0.071
 4177.00    1.15428   1.02984    0.070
 4178.00    1.17547   1.03749    0.070
 4179.00    1.19203   1.04427    0.069
 4180.00    1.20499   1.05196    0.068
 4181.00    1.17272   1.05940    0.067
 4182.00    1.10951   1.06749    0.067
 4183.00    1.10537   1.07366    0.067
 4184.00    1.13664   1.07764    0.068
 4185.00    1.17525   1.08260    0.069
 4186.00    1.21769   1.08566    0.069
 4187.00    1.24858   1.08939    0.069
 4188.00    1.27421   1.09130    0.069
 4189.00    1.25984   1.09129    0.068
 4190.00    1.22985   1.08989    0.068
 4191.00    1.15176   1.08459    0.068
 4192.00    1.05769   1.07850    0.066
 4193.00    1.04084   1.06873    0.066
 4194.00    1.04552   1.05717    0.066
 4195.00    1.09251   1.04559    0.067
 4196.00    1.14921   1.03549    0.068
 4197.00    1.08608   1.02988    0.068
 4198.00    1.00092   1.02631    0.068
 4199.00    1.00651   1.02745    0.068
 4200.00    1.02492   1.03468    0.068
 4201.00    1.05756   1.04570    0.067
 4202.00    1.09166   1.06115    0.067
 4203.00    1.10035   1.07899    0.066
 4204.00    1.10738   1.09693    0.065
 4205.00    1.07945   1.11449    0.065
 4206.00    1.05059   1.12815    0.065
 4207.00    1.11889   1.13849    0.066
 4208.00    1.18448   1.14685    0.067
 4209.00    1.17022   1.15231    0.067
 4210.00    1.16223   1.15530    0.067
 4211.00    1.24545   1.15677    0.067
 4212.00    1.31629   1.15603    0.068
 4213.00    1.27008   1.15686    0.067
 4214.00    1.23013   1.15944    0.066
 4215.00    1.23321   1.16134    0.066
 4216.00    1.21840   1.16314    0.065
 4217.00    1.10856   1.15949    0.064
 4218.00    1.02212   1.15061    0.063
 4219.00    1.03557   1.13537    0.062
 4220.00    1.04677   1.11577    0.062
 4221.00    1.05005   1.09275    0.062
 4222.00    1.04882   1.06604    0.063
 4223.00    1.03426   1.03996    0.063
 4224.00    1.02802   1.01832    0.064
 4225.00    1.04281   1.00729    0.063
 4226.00    1.05326   1.00525    0.063
 4227.00    1.05432   1.01158    0.063
 4228.00    1.07103   1.02518    0.062
 4229.00    1.11727   1.04131    0.062
 4230.00    1.12809   1.05867    0.061
 4231.00    1.08059   1.07734    0.060
 4232.00    1.03847   1.09465    0.059
 4233.00    1.00412   1.10983    0.059
 4234.00    1.00733   1.12326    0.059
 4235.00    1.05820   1.13470    0.059
 4236.00    1.08504   1.14765    0.059
 4237.00    1.08499   1.16056    0.058
 4238.00    1.11440   1.17554    0.059
 4239.00    1.17288   1.19048    0.059
 4240.00    1.19617   1.20224    0.060
 4241.00    1.18883   1.21452    0.060
 4242.00    1.19500   1.22081    0.060
 4243.00    1.21153   1.22184    0.060
 4244.00    1.20859   1.21714    0.061
 4245.00    1.19252   1.20655    0.061
 4246.00    1.18156   1.19295    0.062
 4247.00    1.17361   1.17476    0.064
 4248.00    1.21379   1.15952    0.065
 4249.00    1.27877   1.14663    0.066
 4250.00    1.28992   1.13331    0.066
 4251.00    1.27705   1.12312    0.066
 4252.00    1.20580   1.11666    0.065
 4253.00    1.11217   1.11577    0.064
 4254.00    1.08164   1.11924    0.062
 4255.00    1.07169   1.12364    0.061
 4256.00    1.04030   1.13115    0.060
 4257.00    1.00305   1.13855    0.060
 4258.00    1.05353   1.14730    0.061
 4259.00    1.12366   1.16088    0.062
 4260.00    1.15650   1.17549    0.063
 4261.00    1.18267   1.18895    0.063
 4262.00    1.12966   1.19707    0.063
 4263.00    1.06582   1.19994    0.063
 4264.00    1.10569   1.19571    0.063
 4265.00    1.15570   1.18578    0.063
 4266.00    1.17012   1.17029    0.064
 4267.00    1.18235   1.14885    0.064
 4268.00    1.05219   1.12374    0.063
 4269.00    0.91866   1.09943    0.061
 4270.00    0.87795   1.08263    0.061
 4271.00    0.83989   1.06958    0.060
 4272.00    0.87184   1.06470    0.061
 4273.00    0.90619   1.07059    0.062
 4274.00    0.97355   1.08172    0.062
 4275.00    1.04211   1.09773    0.063
 4276.00    1.12143   1.11502    0.064
 4277.00    1.19608   1.13069    0.065
 4278.00    1.23957   1.14482    0.066
 4279.00    1.27424   1.15268    0.066
 4280.00    1.26334   1.15768    0.066
 4281.00    1.26024   1.15837    0.067
 4282.00    1.28976   1.15111   -2.000
 4283.00    1.29863   1.14206   -2.000
 4284.00    1.23623   1.12902   -2.000
 4285.00    1.16103   1.11656   -2.000
 4286.00    1.04856   1.10250   -2.000
 4287.00    1.02195   1.08883   -2.000
 4288.00    1.20829   1.07897   -2.000
 4289.00    1.32627   1.06890   -2.000
 4290.00    1.29813   1.06208   -2.000
 4291.00    1.32074   1.05229   -2.000
 4292.00    1.43760   1.04277   -2.000
 4293.00    1.45433   1.03020   -2.000
 4294.00    1.30867   1.01314   -2.000
 4295.00    1.20856   0.99588   -2.000
 4296.00    1.17323   0.97304   -2.000
 4297.00    1.14894   0.94977   -2.000
 4298.00    1.13846   0.92641    0.066
 4299.00    1.12540   0.90342    0.066
 4300.00    1.10951   0.88369    0.066
 4301.00    1.11666   0.86729    0.066
 4302.00    1.14625   0.85360    0.067
 4303.00    1.08500   0.84502    0.068
 4304.00    0.94580   0.84154    0.068
 4305.00    0.92268   0.84497    0.068
 4306.00    0.98728   0.85808    0.068
 4307.00    1.03861   0.87851    0.068
 4308.00    1.08114   0.91014    0.067
 4309.00    1.11740   0.94947    0.070
 4310.00    1.15002   0.99704    0.075
 4311.00    1.21863   1.05004    0.076
 4312.00    1.30549   1.10562    0.075
 4313.00    1.33349   1.16409    0.075
 4314.00    1.33567   1.21560    0.075
 4315.00    1.36729   1.25804    0.070
 4316.00    1.41001   1.28854    0.065
 4317.00    1.34615   1.30739    0.063
 4318.00    1.24821   1.31232    0.063
 4319.00    1.25127   1.30844    0.063
 4320.00    1.28132   1.29481    0.064
 4321.00    1.30890   1.27605    0.064
 4322.00    1.33593   1.25734    0.064
 4323.00    1.29467   1.24290    0.065
 4324.00    1.24153   1.24119    0.065
 4325.00    1.17334   1.24670    0.064
 4326.00    1.10316   1.26088    0.064
 4327.00    1.25626   1.27719    0.064
 4328.00    1.43024   1.29620    0.065
 4329.00    1.44418   1.31670    0.065
 4330.00    1.44897   1.33200    0.000
 4331.00    1.43133   1.34356    0.000
 4332.00    1.41306   1.34673    0.000
 4333.00    1.38238   1.34046    0.000
 4334.00    1.34886   1.32278    0.000
 4335.00    1.24692   1.30186    0.000
 4336.00    1.15356   1.28167    0.000
 4337.00    1.17175   1.26135    0.000
 4338.00    1.19134   1.24837    0.000
 4339.00    1.22306   1.24418    0.000
 4340.00    1.25845   1.24588    0.000
 4341.00    1.31752   1.25158    0.000
 4342.00    1.37032   1.26552    0.000
 4343.00    1.39149   1.28268    0.000
 4344.00    1.39272   1.29890    0.000
 4345.00    1.31259   1.31517    0.000
 4346.00    1.24822   1.32967    0.000
 4347.00    1.23721   1.33781    0.000
 4348.00    1.24877   1.33751    0.000
 4349.00    1.32475   1.33628    0.000
 4350.00    1.38539   1.33692    0.000
 4351.00    1.40864   1.33766    0.063
 4352.00    1.40632   1.33964    0.063
 4353.00    1.35023   1.34516    0.062
 4354.00    1.33752   1.35396    0.076
 4355.00    1.40413   1.36307    0.198
 4356.00    1.47111   1.37367   -1.000
 4357.00    1.53868   1.38878   -1.000
 4358.00    1.56629   1.40535   -1.000
 4359.00    1.53787   1.42023   -1.000
 4360.00    1.51500   1.43163   -1.000
 4361.00    1.49897   1.44174   -1.000
 4362.00    1.47672   1.44853    0.260
 4363.00    1.44771   1.44868    0.084
 4364.00    1.42994   1.44415    0.063
 4365.00    1.42295   1.43605    0.062
 4366.00    1.41806   1.42632    0.062
 4367.00    1.41495   1.41232    0.063
 4368.00    1.42639   1.39680    0.063
 4369.00    1.44867   1.38109    0.063
 4370.00    1.44157   1.36338    0.063
 4371.00    1.41523   1.34525    0.062
 4372.00    1.40369   1.32846    0.062
 4373.00    1.40063   1.31432    0.062
 4374.00    1.43130   1.30201    0.063
 4375.00    1.47879   1.28777    0.064
 4376.00    1.45525   1.27156    0.063
 4377.00    1.40106   1.25173    0.063
 4378.00    1.37332   1.23037    0.063
 4379.00    1.35538   1.20733    0.063
 4380.00    1.32267   1.18195    0.063
 4381.00    1.28534   1.16219    0.062
 4382.00    1.26647   1.14950    0.062
 4383.00    1.25245   1.14464    0.062
 4384.00    1.23695   1.14443    0.061
 4385.00    1.22114   1.14996    0.061
 4386.00    1.28051   1.16264    0.061
 4387.00    1.35259   1.17881    0.062
 4388.00    1.38689   1.19988    0.061
 4389.00    1.41637   1.22382    0.060
 4390.00    1.39743   1.24784    0.060
 4391.00    1.37416   1.26970    0.060
 4392.00    1.41630   1.28837    0.061
 4393.00    1.46191   1.30561    0.062
 4394.00    1.46283   1.31957    0.062
 4395.00    1.46167   1.32679    0.062
 4396.00    1.36313   1.32909    0.061
 4397.00    1.27095   1.32509    0.060
 4398.00    1.31861   1.31693    0.062
 4399.00    1.36373   1.30736    0.063
 4400.00    1.37756   1.29391    0.063
 4401.00    1.38661   1.27768    0.062
 4402.00    1.35535   1.26441    0.062
 4403.00    1.33237   1.25829    0.062
 4404.00    1.36123   1.25648    0.063
 4405.00    1.38384   1.25891    0.063
 4406.00    1.37570   1.26929    0.063
 4407.00    1.37504   1.28489    0.063
 4408.00    1.40426   1.30194    0.063
 4409.00    1.41131   1.31959    0.063
 4410.00    1.34482   1.33661    0.062
 4411.00    1.30683   1.35044    0.062
 4412.00    1.34869   1.36059    0.061
 4413.00    1.39391   1.37226    0.061
 4414.00    1.44719   1.38200    0.062
 4415.00    1.47564   1.38992    0.062
 4416.00    1.45272   1.39754    0.062
 4417.00    1.43150   1.40280    0.062
 4418.00    1.41335   1.40621    0.062
 4419.00    1.41873   1.40761    0.062
 4420.00    1.46112   1.40909    0.063
 4421.00    1.46375   1.41096    0.062
 4422.00    1.41143   1.41058    0.062
 4423.00    1.39578   1.40956    0.062
 4424.00    1.42475   1.40727    0.063
 4425.00    1.46782   1.40408    0.063
 4426.00    1.52600   1.40136    0.063
 4427.00    1.53447   1.39563    0.063
 4428.00    1.49591   1.39211    0.063
 4429.00    1.48087   1.38938    0.064
 4430.00    1.48542   1.38578    0.064
 4431.00    1.49246   1.38327    0.064
 4432.00    1.50133   1.38199    0.063
 4433.00    1.51193   1.38469    0.063
 4434.00    1.52363   1.39042    0.063
 4435.00    1.51536   1.39729    0.063
 4436.00    1.49581   1.40570    0.064
 4437.00    1.48996   1.41338    0.064
 4438.00    1.49082   1.42122    0.064
 4439.00    1.52778   1.42922    0.065
 4440.00    1.58006   1.43771    0.066
 4441.00    1.54083   1.44769    0.066
 4442.00    1.46834   1.45717    0.065
 4443.00    1.46772   1.46652    0.065
 4444.00    1.48921   1.47220    0.065
 4445.00    1.51195   1.47626    0.065
 4446.00    1.53502   1.47795    0.064
 4447.00    1.51056   1.47384    0.063
 4448.00    1.47619   1.46675    0.063
 4449.00    1.48566   1.45504    0.063
 4450.00    1.50234   1.43826    0.063
 4451.00    1.46583   1.41852    0.063
 4452.00    1.42276   1.39588    0.063
 4453.00    1.37363   1.37475    0.062
 4454.00    1.32398   1.35461    0.061
 4455.00    1.37454   1.33790    0.062
 4456.00    1.43004   1.32442    0.063
 4457.00    1.46663   1.31618    0.063
 4458.00    1.50144   1.31433    0.063
 4459.00    1.44327   1.31607    0.062
 4460.00    1.38442   1.32500    0.061
 4461.00    1.31203   1.33684    0.000
 4462.00    1.25244   1.35093    0.000
 4463.00    1.34330   1.36779    0.000
 4464.00    1.43146   1.38461    0.000
 4465.00    1.49772   1.40325    0.000
 4466.00    1.54489   1.42088    0.000
 4467.00    1.47597   1.44007    0.000
 4468.00    1.42354   1.45923    0.000
 4469.00    1.45020   1.47858    0.000
 4470.00    1.48058   1.49741    0.000
 4471.00    1.52546   1.51408    0.000
 4472.00    1.57221   1.52901    0.000
 4473.00    1.62501   1.54117    0.000
 4474.00    1.64662   1.55062    0.000
 4475.00    1.58242   1.55521    0.000
 4476.00    1.55665   1.55644    0.000
 4477.00    1.62141   1.55440    0.000
 4478.00    1.63414   1.55206    0.000
 4479.00    1.54089   1.54900    0.000
 4480.00    1.48300   1.54718    0.000
 4481.00    1.48781   1.54606    0.000
 4482.00    1.50450   1.54499    0.062
 4483.00    1.53964   1.54448    0.063
 4484.00    1.56918   1.54269    0.063
 4485.00    1.59109   1.53958    0.063
 4486.00    1.59255   1.53556    0.063
 4487.00    1.56951   1.53086    0.063
 4488.00    1.56360   1.52641    0.063
 4489.00    1.57581   1.52068    0.063
 4490.00    1.53592   1.51623    0.062
 4491.00    1.44744   1.51199    0.061
 4492.00    1.43758   1.51119    0.061
 4493.00    1.49235   1.51465    0.061
 4494.00    1.52351   1.52128    0.062
 4495.00    1.53759   1.53301    0.063
 4496.00    1.51398   1.54661    0.062
 4497.00    1.46641   1.56459    0.061
 4498.00    1.50831   1.58394    0.061
 4499.00    1.59990   1.60441    0.062
 4500.00    1.61489   1.62519    0.063
 4501.00    1.59288   1.64386    0.063
 4502.00    1.53874   1.66037    0.062
 4503.00    1.47120   1.67324    0.061
 4504.00    1.50049   1.68257    0.061
 4505.00    1.56435   1.68788    0.062
 4506.00    1.56642   1.68916    0.062
 4507.00    1.54986   1.68640    0.061
 4508.00    1.55415   1.68054    0.061
 4509.00    1.56365   1.67228    0.062
 4510.00    1.55103   1.66260    0.061
 4511.00    1.53390   1.65236    0.061
 4512.00    1.54218   1.64214    0.061
 4513.00    1.55452   1.63254    0.061
 4514.00    1.57974   1.62454    0.062
 4515.00    1.60649   1.61659    0.063
 4516.00    1.59626   1.61028    0.063
 4517.00    1.58303   1.60205    0.062
 4518.00    1.59012   1.59244    0.062
 4519.00    1.59814   1.58059    0.062
 4520.00    1.58673   1.56493    0.062
 4521.00    1.57558   1.54709    0.062
 4522.00    1.58982   1.52561    0.062
 4523.00    1.59912   1.50288    0.062
 4524.00    1.51568   1.47902    0.061
 4525.00    1.44316   1.45784    0.061
 4526.00    1.49293   1.43829    0.061
 4527.00    1.53771   1.42469    0.061
 4528.00    1.54334   1.41442    0.061
 4529.00    1.53438   1.41017    0.061
 4530.00    1.43908   1.41115    0.061
 4531.00    1.37070   1.41714    0.061
 4532.00    1.42837   1.42949    0.061
 4533.00    1.48275   1.44322    0.062
 4534.00    1.52452   1.46058    0.062
 4535.00    1.54934   1.47647    0.062
 4536.00    1.52010   1.49266    0.062
 4537.00    1.52720   1.50699    0.062
 4538.00    1.63249   1.51930    0.062
 4539.00    1.68791   1.52857    0.062
 4540.00    1.62773   1.53385    0.062
 4541.00    1.58925   1.53761    0.062
 4542.00    1.59426   1.53774    0.061
 4543.00    1.58747   1.53739    0.061
 4544.00    1.56007   1.53411    0.061
 4545.00    1.54848   1.53108    0.062
 4546.00    1.56104   1.52859    0.062
 4547.00    1.57876   1.52560    0.062
 4548.00    1.60339   1.52527    0.063
 4549.00    1.59095   1.52536    0.062
 4550.00    1.53466   1.52864    0.000
 4551.00    1.51742   1.53383    0.000
 4552.00    1.54089   1.54272    0.000
 4553.00    1.53188   1.55284    0.000
 4554.00    1.49302   1.56493    0.000
 4555.00    1.52690   1.57706    0.000
 4556.00    1.61973   1.58892    0.000
 4557.00    1.64441   1.60021    0.000
 4558.00    1.62048   1.60818    0.000
 4559.00    1.63039   1.61435    0.000
 4560.00    1.66148   1.61777    0.000
 4561.00    1.62923   1.62004    0.000
 4562.00    1.56234   1.62184    0.000
 4563.00    1.55061   1.62268    0.000
 4564.00    1.56511   1.62306    0.000
 4565.00    1.56299   1.62409    0.000
 4566.00    1.55405   1.62414    0.000
 4567.00    1.59112   1.62521    0.000
 4568.00    1.64432   1.62773    0.000
 4569.00    1.67318   1.62883    0.000
 4570.00    1.69484   1.62903    0.000
 4571.00    1.67499   1.62814    0.000
 4572.00    1.64497   1.62554    0.000
 4573.00    1.66827   1.62099    0.000
 4574.00    1.70213   1.61394    0.000
 4575.00    1.67692   1.60530    0.000
 4576.00    1.64258   1.59563    0.000
 4577.00    1.59786   1.58650    0.000
 4578.00    1.55195   1.57734    0.000
 4579.00    1.54770   1.56925    0.000
 4580.00    1.54664   1.56348    0.000
 4581.00    1.56151   1.55961    0.000
 4582.00    1.57705   1.55955    0.000
 4583.00    1.57005   1.56112    0.000
 4584.00    1.56351   1.56486    0.000
 4585.00    1.58541   1.56862    0.000
 4586.00    1.60676   1.57199    0.000
 4587.00    1.61849   1.57421    0.000
 4588.00    1.63028   1.57517    0.000
 4589.00    1.64263   1.57433    0.000
 4590.00    1.64482   1.57133    0.000
 4591.00    1.57016   1.56718    0.000
 4592.00    1.50611   1.56232    0.000
 4593.00    1.50311   1.55688    0.000
 4594.00    1.49791   1.55318    0.000
 4595.00    1.48262   1.54937    0.000
 4596.00    1.48172   1.54789    0.000
 4597.00    1.53462   1.54881    0.000
 4598.00    1.56986   1.55097    0.000
 4599.00    1.54987   1.55642    0.000
 4600.00    1.55973   1.56272    0.000
 4601.00    1.64886   1.57291    0.000
 4602.00    1.70486   1.58417    0.000
 4603.00    1.68539   1.59808    0.000
 4604.00    1.63667   1.61237    0.000
 4605.00    1.53021   1.62694    0.000
 4606.00    1.49781   1.64082    0.000
 4607.00    1.59273   1.65384    0.000
 4608.00    1.64882   1.66564    0.000
 4609.00    1.64643   1.67496    0.000
 4610.00    1.68188   1.68387    0.000
 4611.00    1.76738   1.68926    0.000
 4612.00    1.76793   1.69443    0.000
 4613.00    1.66948   1.69754    0.000
 4614.00    1.61277   1.70018    0.000
 4615.00    1.59896   1.70184    0.000
 4616.00    1.60543   1.70388    0.000
 4617.00    1.63027   1.70464    0.000
 4618.00    1.66230   1.70511    0.000
 4619.00    1.70007   1.70524    0.000
 4620.00    1.69071   1.70458    0.000
 4621.00    1.64824   1.70356    0.000
 4622.00    1.62286   1.70177    0.000
 4623.00    1.60803   1.69978    0.000
 4624.00    1.61332   1.69666    0.000
 4625.00    1.62945   1.69310    0.000
 4626.00    1.62921   1.68873    0.000
 4627.00    1.62132   1.68338    0.000
 4628.00    1.59732   1.67642    0.000
 4629.00    1.56683   1.66884    0.000
 4630.00    1.60743   1.65956    0.000
 4631.00    1.67248   1.64934    0.000
 4632.00    1.71285   1.63788    0.000
 4633.00    1.74609   1.62537    0.000
 4634.00    1.71486   1.61332    0.000
 4635.00    1.66819   1.60047    0.000
 4636.00    1.68117   1.58880    0.000
 4637.00    1.70568   1.57680    0.000
 4638.00    1.61251   1.56588    0.000
 4639.00    1.50167   1.55461    0.000
 4640.00    1.55177   1.54472    0.000
 4641.00    1.61959   1.53505    0.000
 4642.00    1.59294   1.52702    0.000
 4643.00    1.55941   1.52053    0.000
 4644.00    1.55246   1.51626    0.000
 4645.00    1.54650   1.51438    0.000
 4646.00    1.57333   1.51557    0.000
 4647.00    1.59818   1.51893    0.000
 4648.00    1.54358   1.52549    0.000
 4649.00    1.49520   1.53380    0.000
 4650.00    1.54856   1.54432    0.000
 4651.00    1.59777   1.55608    0.000
 4652.00    1.60469   1.56836    0.000
 4653.00    1.60689   1.58058    0.000
 4654.00    1.57460   1.59115    0.000
 4655.00    1.55699   1.60024    0.000
 4656.00    1.62148   1.60590    0.000
 4657.00    1.67263   1.60873    0.000
 4658.00    1.66429   1.60718    0.000
 4659.00    1.66041   1.60120    0.000
 4660.00    1.67285   1.59072    0.000
 4661.00    1.68678   1.57714    0.000
 4662.00    1.70528   1.56190    0.000
 4663.00    1.69507   1.54620    0.000
 4664.00    1.60997   1.53212    0.000
 4665.00    1.55185   1.52046    0.000
 4666.00    1.55421   1.51288    0.000
 4667.00    1.57337   1.50981    0.000
 4668.00    1.62518   1.51113    0.000
 4669.00    1.63273   1.51679    0.000
 4670.00    1.56533   1.52448    0.000
 4671.00    1.53599   1.53362    0.000
 4672.00    1.56311   1.54242    0.000
 4673.00    1.59064   1.55044    0.000
 4674.00    1.61870   1.55650    0.000
 4675.00    1.63871   1.56054    0.000
 4676.00    1.64945   1.56306    0.000
 4677.00    1.61032   1.56363    0.000
 4678.00    1.52063   1.56349    0.000
 4679.00    1.48523   1.56271    0.000
 4680.00    1.49832   1.56219    0.000
 4681.00    1.54956   1.56174    0.000
 4682.00    1.63082   1.56214    0.000
 4683.00    1.67853   1.56280    0.000
 4684.00    1.70300   1.56380    0.000
 4685.00    1.64179   1.56506    0.000
 4686.00    1.52856   1.56647    0.000
 4687.00    1.49489   1.56776    0.000
 4688.00    1.50342   1.56907    0.000
 4689.00    1.53947   1.56987    0.000
 4690.00    1.58819   1.57018    0.000
 4691.00    1.59181   1.56944    0.000
 4692.00    1.57756   1.56770    0.000
 4693.00    1.58298   1.56491    0.000
 4694.00    1.59504   1.56029    0.000
 4695.00    1.61954   1.55471    0.000
 4696.00    1.64757   1.54736    0.000
 4697.00    1.65220   1.54015    0.000
 4698.00    1.65134   1.53197    0.000
 4699.00    1.60318   1.52503    0.000
 4700.00    1.54611   1.51828    0.000
 4701.00    1.58692   1.51377    0.000
 4702.00    1.64198   1.51067    0.000
 4703.00    1.63481   1.50977    0.000
 4704.00    1.62107   1.51098    0.000
 4705.00    1.57781   1.51369    0.000
 4706.00    1.53253   1.51860    0.000
 4707.00    1.54310   1.52476    0.000
 4708.00    1.55557   1.53307    0.000
 4709.00    1.58279   1.54254    0.000
 4710.00    1.60867   1.55389    0.000
 4711.00    1.59039   1.56634    0.000
 4712.00    1.57621   1.58020    0.000
 4713.00    1.62501   1.59475    0.000
 4714.00    1.67219   1.60978    0.000
 4715.00    1.70358   1.62461    0.000
 4716.00    1.73077   1.63839    0.000
 4717.00    1.72830   1.65028    0.000
 4718.00    1.72323   1.65903    0.000
 4719.00    1.70403   1.66440    0.000
 4720.00    1.67907   1.66548    0.000
 4721.00    1.62899   1.66267    0.000
 4722.00    1.58546   1.65557    0.000
 4723.00    1.56543   1.64554    0.000
 4724.00    1.56659   1.63297    0.000
 4725.00    1.63157   1.61940    0.000
 4726.00    1.68114   1.60629    0.000
 4727.00    1.69126   1.59434    0.000
 4728.00    1.68722   1.58533    0.000
 4729.00    1.65201   1.57934    0.000
 4730.00    1.64135   1.57719    0.000
 4731.00    1.67765   1.57799    0.000
 4732.00    1.68167   1.58204    0.000
 4733.00    1.63183   1.58826    0.000
 4734.00    1.59179   1.59620    0.000
 4735.00    1.56607   1.60513    0.000
 4736.00    1.57757   1.61430    0.000
 4737.00    1.63692   1.62375    0.000
 4738.00    1.67769   1.63271    0.000
 4739.00    1.69741   1.64135    0.000
 4740.00    1.70443   1.64926    0.000
 4741.00    1.69877   1.65647    0.000
 4742.00    1.69193   1.66286    0.000
 4743.00    1.68403   1.66789    0.000
 4744.00    1.64297   1.67200    0.000
 4745.00    1.57614   1.67399    0.000
 4746.00    1.57630   1.67498    0.000
 4747.00    1.62216   1.67339    0.000
 4748.00    1.65143   1.67086    0.000
 4749.00    1.67075   1.66599    0.000
 4750.00    1.68194   1.66050    0.000
 4751.00    1.68888   1.65343    0.000
 4752.00    1.70923   1.64621    0.000
 4753.00    1.73565   1.63828    0.000
 4754.00    1.72874   1.63031    0.000
 4755.00    1.70886   1.62210    0.000
 4756.00    1.67113   1.61381    0.000
 4757.00    1.62748   1.60533    0.000
 4758.00    1.61507   1.59685    0.000
 4759.00    1.61135   1.58842    0.000
 4760.00    1.63003   1.58058    0.000
 4761.00    1.65384   1.57370    0.056
 4762.00    1.67106   1.56868    0.056
 4763.00    1.68708   1.56588    0.055
 4764.00    1.63561   1.56592    0.056
 4765.00    1.57464   1.56892    0.056
 4766.00    1.56661   1.57491    0.056
 4767.00    1.56395   1.58359    0.056
 4768.00    1.58179   1.59430    0.056
 4769.00    1.60096   1.60636    0.056
 4770.00    1.65185   1.61894    0.056
 4771.00    1.70358   1.63109    0.056
 4772.00    1.69414   1.64220    0.056
 4773.00    1.68340   1.65130    0.055
 4774.00    1.63508   1.65819    0.056
 4775.00    1.58953   1.66212    0.056
 4776.00    1.58381   1.66332    0.056
 4777.00    1.58028   1.66158    0.055
 4778.00    1.59739   1.65748    0.055
 4779.00    1.60658   1.65136    0.055
 4780.00    1.56161   1.64417    0.055
 4781.00    1.52085   1.63654    0.055
 4782.00    1.50240   1.62957    0.054
 4783.00    1.48244   1.62384    0.054
 4784.00    1.45599   1.62029    0.053
 4785.00    1.44366   1.61919    0.053
 4786.00    1.48099   1.62094    0.054
 4787.00    1.52314   1.62531    0.055
 4788.00    1.57955   1.63213    0.055
 4789.00    1.61432   1.64057    0.055
 4790.00    1.59463   1.65008    0.055
 4791.00    1.59991   1.65953    0.055
 4792.00    1.65935   1.66839    0.055
 4793.00    1.69455   1.67572    0.056
 4794.00    1.68413   1.68127    0.057
 4795.00    1.67254   1.68480    0.057
 4796.00    1.65904   1.68624    0.056
 4797.00    1.63638   1.68621    0.055
 4798.00    1.60054   1.68443    0.055
 4799.00    1.58806   1.68211    0.056
 4800.00    1.60519   1.67860    0.056
 4801.00    1.60674   1.67536    0.056
 4802.00    1.59092   1.67143    0.057
 4803.00    1.59165   1.66835    0.057
 4804.00    1.60871   1.66521    0.057
 4805.00    1.62867   1.66341    0.057
 4806.00    1.65117   1.66228    0.058
 4807.00    1.65147   1.66287    0.058
 4808.00    1.63478   1.66464    0.058
 4809.00    1.64136   1.66814    0.057
 4810.00    1.66358   1.67274    0.057
 4811.00    1.68371   1.67844    0.057
 4812.00    1.70262   1.68448    0.058
 4813.00    1.68854   1.69052    0.058
 4814.00    1.65752   1.69572    0.058
 4815.00    1.68042   1.69976    0.058
 4816.00    1.72732   1.70190    0.059
 4817.00    1.68276   1.70221    0.059
 4818.00    1.60322   1.70024    0.058
 4819.00    1.62530   1.69659    0.058
 4820.00    1.68042   1.69115    0.058
 4821.00    1.69441   1.68489    0.058
 4822.00    1.69720   1.67787    0.058
 4823.00    1.72272   1.67100    0.058
 4824.00    1.75331   1.66445    0.059
 4825.00    1.68449   1.65864    0.059
 4826.00    1.59796   1.65370    0.059
 4827.00    1.61797   1.64961    0.059
 4828.00    1.65248   1.64651    0.059
 4829.00    1.64384   1.64396    0.059
 4830.00    1.63101   1.64218    0.058
 4831.00    1.65895   1.64051    0.058
 4832.00    1.68938   1.63921    0.058
 4833.00    1.67042   1.63769    0.057
 4834.00    1.65044   1.63621    0.057
 4835.00    1.68040   1.63442    0.058
 4836.00    1.70981   1.63260    0.059
 4837.00    1.72471   1.63077    0.060
 4838.00    1.73368   1.62917    0.060
 4839.00    1.66158   1.62794    0.058
 4840.00    1.59280   1.62717    0.056
 4841.00    1.55404   1.62685    0.056
 4842.00    1.52666   1.62677    0.056
 4843.00    1.57481   1.62662    0.056
 4844.00    1.62307   1.62596    0.056
 4845.00    1.67189   1.62429    0.057
 4846.00    1.71748   1.62105    0.057
 4847.00    1.74963   1.61581    0.057
 4848.00    1.75832   1.60810    0.000
 4849.00    1.68619   1.59775    0.000
 4850.00    1.62850   1.58457    0.000
 4851.00    1.61266   1.56871    0.000
 4852.00    1.59974   1.55047    0.000
 4853.00    1.59403   1.53042    0.000
 4854.00    1.58343   1.50941    0.000
 4855.00    1.56237   1.48831    0.000
 4856.00    1.54801   1.46848    0.000
 4857.00    1.54605   1.45076    0.000
 4858.00    1.55759   1.43659    0.000
 4859.00    1.59098   1.42614    0.000
 4860.00    1.58577   1.42050    0.000
 4861.00    1.52575   1.41879    0.000
 4862.00    1.48948   1.42141    0.000
 4863.00    1.48288   1.42657    0.000
 4864.00    1.50607   1.43426    0.000
 4865.00    1.56206   1.44263    0.000
 4866.00    1.59330   1.45182    0.000
 4867.00    1.60052   1.46060    0.000
 4868.00    1.60695   1.46958    0.000
 4869.00    1.61270   1.47835    0.000
 4870.00    1.59428   1.48772    0.000
 4871.00    1.55763   1.49751    0.000
 4872.00    1.55141   1.50828    0.000
 4873.00    1.56538   1.51938    0.000
 4874.00    1.57620   1.53082    0.000
 4875.00    1.58521   1.54140    0.056
 4876.00    1.59542   1.55089    0.056
 4877.00    1.60625   1.55800    0.056
 4878.00    1.59943   1.56258    0.056
 4879.00    1.58488   1.56400    0.056
 4880.00    1.63544   1.56261    0.056
 4881.00    1.71046   1.55870    0.056
 4882.00    1.72403   1.55312    0.056
 4883.00    1.71800   1.54707    0.056
 4884.00    1.68034   1.54145    0.056
 4885.00    1.63425   1.53798    0.057
 4886.00    1.64820   1.53715    0.056
 4887.00    1.67524   1.54053    0.055
 4888.00    1.66061   1.54767    0.055
 4889.00    1.63874   1.55944    0.056
 4890.00    1.66181   1.57440    0.055
 4891.00    1.69080   1.59237    0.055
 4892.00    1.70126   1.61140    0.055
 4893.00    1.71000   1.63056    0.056
 4894.00    1.74456   1.64812    0.056
 4895.00    1.78059   1.66320    0.056
 4896.00    1.78194   1.67493    0.056
 4897.00    1.78208   1.68299    0.056
 4898.00    1.73538   1.68756    0.056
 4899.00    1.69038   1.68883    0.055
 4900.00    1.68538   1.68754    0.055
 4901.00    1.67974   1.68414    0.055
 4902.00    1.66565   1.67932    0.055
 4903.00    1.65146   1.67345    0.055
 4904.00    1.63635   1.66695    0.055
 4905.00    1.62372   1.65997    0.055
 4906.00    1.62702   1.65273    0.055
 4907.00    1.62803   1.64517    0.056
 4908.00    1.61749   1.63734    0.056
 4909.00    1.60655   1.62893    0.056
 4910.00    1.59404   1.61992    0.056
 4911.00    1.59506   1.60986    0.056
 4912.00    1.64175   1.59882    0.055
 4913.00    1.67118   1.58662    0.056
 4914.00    1.65150   1.57380    0.056
 4915.00    1.64622   1.56085    0.057
 4916.00    1.67599   1.54887    0.056
 4917.00    1.67907   1.53895    0.056
 4918.00    1.62614   1.53224    0.054
 4919.00    1.59112   1.52986    0.054
 4920.00    1.58878   1.53217    0.054
 4921.00    1.59666   1.53945    0.055
 4922.00    1.62087   1.55089    0.055
 4923.00    1.65767   1.56571    0.056
 4924.00    1.71211   1.58221    0.056
 4925.00    1.71352   1.59903    0.056
 4926.00    1.64963   1.61439    0.056
 4927.00    1.62303   1.62703    0.056
 4928.00    1.63694   1.63603    0.056
 4929.00    1.64294   1.64089    0.056
 4930.00    1.64136   1.64188    0.056
 4931.00    1.63024   1.63940    0.055
 4932.00    1.61108   1.63476    0.055
 4933.00    1.61237   1.62892    0.055
 4934.00    1.62887   1.62365    0.056
 4935.00    1.60481   1.61973    0.056
 4936.00    1.55425   1.61865    0.055
 4937.00    1.57061   1.62051    0.055
 4938.00    1.62522   1.62605    0.056
 4939.00    1.65076   1.63447    0.057
 4940.00    1.66183   1.64566    0.000
 4941.00    1.66870   1.65813    0.000
 4942.00    1.67378   1.67143    0.000
 4943.00    1.67587   1.68385    0.000
 4944.00    1.67686   1.69495    0.000
 4945.00    1.69252   1.70324    0.000
 4946.00    1.71276   1.70865    0.000
 4947.00    1.75113   1.71013    0.000
 4948.00    1.79423   1.70808    0.000
 4949.00    1.70652   1.70213    0.000
 4950.00    1.59095   1.69309    0.000
 4951.00    1.62961   1.68150    0.000
 4952.00    1.69426   1.66834    0.000
 4953.00    1.67799   1.65486    0.000
 4954.00    1.65143   1.64189    0.000
 4955.00    1.61967   1.63072    0.000
 4956.00    1.58745   1.62163    0.000
 4957.00    1.59291   1.61531    0.000
 4958.00    1.60036   1.61145    0.000
 4959.00    1.64404   1.60978    0.000
 4960.00    1.68727   1.60976    0.000
 4961.00    1.64103   1.61065    0.000
 4962.00    1.59782   1.61234    0.000
 4963.00    1.62060   1.61404    0.000
 4964.00    1.64273   1.61617    0.000
 4965.00    1.65701   1.61816    0.000
 4966.00    1.66904   1.62065    0.000
 4967.00    1.66228   1.62304    0.000
 4968.00    1.65314   1.62558    0.000
 4969.00    1.62917   1.62749    0.000
 4970.00    1.61119   1.62845    0.000
 4971.00    1.62261   1.62766    0.000
 4972.00    1.63638   1.62456    0.000
 4973.00    1.65950   1.61871    0.000
 4974.00    1.66903   1.60996    0.000
 4975.00    1.63361   1.59848    0.000
 4976.00    1.61940   1.58500    0.000
 4977.00    1.66445   1.57019    0.000
 4978.00    1.69590   1.55557    0.000
 4979.00    1.69483   1.54187    0.000
 4980.00    1.65985   1.53076    0.000
 4981.00    1.55483   1.52255    0.000
 4982.00    1.49849   1.51833    0.000
 4983.00    1.52964   1.51766    0.000
 4984.00    1.55535   1.52069    0.000
 4985.00    1.57253   1.52639    0.000
 4986.00    1.59624   1.53409    0.000
 4987.00    1.62895   1.54265    0.000
 4988.00    1.63384   1.55103    0.000
 4989.00    1.60493   1.55847    0.000
 4990.00    1.61323   1.56402    0.000
 4991.00    1.66134   1.56739    0.000
 4992.00    1.66618   1.56799    0.000
 4993.00    1.63016   1.56596    0.000
 4994.00    1.61486   1.56111    0.000
 4995.00    1.61682   1.55390    0.000
 4996.00    1.63559   1.54451    0.000
 4997.00    1.66668   1.53362    0.000
 4998.00    1.67374   1.52168    0.000
 4999.00    1.66533   1.50951    0.000
 5000.00    1.63616   1.49752    0.000
 5001.00    1.59531   1.48647    0.000
 5002.00    1.59946   1.47651    0.000
 5003.00    1.62566   1.46803    0.000
 5004.00    1.63745   1.46084    0.000
 5005.00    1.64315   1.45492    0.000
 5006.00    1.63463   1.44986    0.000
 5007.00    1.62095   1.44547    0.000
 5008.00    1.61665   1.44148    0.000
 5009.00    1.61522   1.43764    0.000
 5010.00    1.60042   1.43428    0.000
 5011.00    1.58221   1.43116    0.000
 5012.00    1.61229   1.42912    0.000
 5013.00    1.65241   1.42782    0.000
 5014.00    1.58510   1.42830    0.000
 5015.00    1.50022   1.42997    0.000
 5016.00    1.47654   1.43372    0.000
 5017.00    1.46038   1.43869    0.000
 5018.00    1.51827   1.44554    0.000
 5019.00    1.58243   1.45337    0.000
 5020.00    1.61906   1.46253    0.000
 5021.00    1.65435   1.47234    0.000
 5022.00    1.64661   1.48282    0.000
 5023.00    1.63789   1.49372    0.000
 5024.00    1.61016   1.50449    0.000
 5025.00    1.58380   1.51520    0.000
 5026.00    1.58482   1.52483    0.000
 5027.00    1.58310   1.53344    0.000
 5028.00    1.54935   1.53988    0.000
 5029.00    1.52832   1.54402    0.054
 5030.00    1.60986   1.54518    0.054
 5031.00    1.68006   1.54318    0.055
 5032.00    1.68153   1.53829    0.055
 5033.00    1.67908   1.53059    0.055
 5034.00    1.65793   1.52139    0.055
 5035.00    1.63605   1.51117    0.055
 5036.00    1.61135   1.50175    0.055
 5037.00    1.59845   1.49376    0.055
 5038.00    1.62384   1.48848    0.056
 5039.00    1.63589   1.48632    0.057
 5040.00    1.61133   1.48739    0.056
 5041.00    1.59552   1.49160    0.055
 5042.00    1.60026   1.49799    0.055
 5043.00    1.60044   1.50606    0.055
 5044.00    1.59138   1.51469    0.055
 5045.00    1.58154   1.52341    0.055
 5046.00    1.57031   1.53180    0.056
 5047.00    1.57161   1.53964    0.056
 5048.00    1.59231   1.54734    0.056
 5049.00    1.63576   1.55486    0.055
 5050.00    1.71014   1.56291    0.056
 5051.00    1.71159   1.57121    0.056
 5052.00    1.62575   1.58015    0.055
 5053.00    1.58405   1.58897    0.056
 5054.00    1.58893   1.59762    0.057
 5055.00    1.57732   1.60499    0.056
 5056.00    1.55035   1.61084    0.055
 5057.00    1.54084   1.61416    0.055
 5058.00    1.54568   1.61499    0.055
 5059.00    1.57942   1.61278    0.055
 5060.00    1.63404   1.60813    0.055
 5061.00    1.64186   1.60097    0.055
 5062.00    1.62002   1.59239    0.055
 5063.00    1.58397   1.58270    0.055
 5064.00    1.54003   1.57287    0.054
 5065.00    1.53699   1.56334    0.054
 5066.00    1.55367   1.55453    0.053
 5067.00    1.56247   1.54668    0.053
 5068.00    1.56797   1.53962    0.054
 5069.00    1.59034   1.53323    0.054
 5070.00    1.61872   1.52715    0.055
 5071.00    1.62050   1.52094    0.055
 5072.00    1.61427   1.51455    0.055
 5073.00    1.59997   1.50761    0.055
 5074.00    1.58365   1.50054    0.054
 5075.00    1.59108   1.49344    0.054
 5076.00    1.60333   1.48685    0.054
 5077.00    1.60929   1.48161    0.054
 5078.00    1.61424   1.47790    0.054
 5079.00    1.55551   1.47687    0.053
 5080.00    1.48925   1.47814    0.052
 5081.00    1.51587   1.48259    0.052
 5082.00    1.54996   1.48929    0.052
 5083.00    1.55171   1.49843    0.051
 5084.00    1.55200   1.50886    0.051
 5085.00    1.50878   1.52006    0.051
 5086.00    1.46591   1.53104    0.051
 5087.00    1.46657   1.54084    0.050
 5088.00    1.46811   1.54903    0.050
 5089.00    1.48600   1.55459    0.050
 5090.00    1.50709   1.55774    0.051
 5091.00    1.56373   1.55778    0.051
 5092.00    1.61238   1.55553    0.052
 5093.00    1.59877   1.55076    0.052
 5094.00    1.58813   1.54463    0.053
 5095.00    1.59500   1.53728    0.054
 5096.00    1.59753   1.52970    0.055
 5097.00    1.57981   1.52233    0.054
 5098.00    1.56287   1.51549    0.054
 5099.00    1.54894   1.50984    0.053
 5100.00    1.52900   1.50486    0.052
 5101.00    1.48995   1.50141    0.052
 5102.00    1.46805   1.49849    0.052
 5103.00    1.49235   1.49716    0.052
 5104.00    1.52031   1.49642    0.052
 5105.00    1.55675   1.49733    0.054
 5106.00    1.59197   1.49922    0.055
 5107.00    1.62480   1.50274    0.054
 5108.00    1.62214   1.50757    0.054
 5109.00    1.55766   1.51358    0.054
 5110.00    1.52148   1.52055    0.054
 5111.00    1.52848   1.52759    0.054
 5112.00    1.54351   1.53442    0.055
 5113.00    1.56932   1.53971    0.054
 5114.00    1.58809   1.54327    0.055
 5115.00    1.59854   1.54399    0.055
 5116.00    1.60428   1.54197    0.056
 5117.00    1.60512   1.53673    0.057
 5118.00    1.58495   1.52885    0.056
 5119.00    1.54550   1.51875    0.056
 5120.00    1.52410   1.50719    0.055
 5121.00    1.51730   1.49541    0.054
 5122.00    1.50655   1.48388    0.054
 5123.00    1.49301   1.47417    0.053
 5124.00    1.50490   1.46615    0.054
 5125.00    1.53268   1.46108    0.055
 5126.00    1.55153   1.45825    0.055
 5127.00    1.56549   1.45816    0.055
 5128.00    1.55526   1.45980    0.055
 5129.00    1.53354   1.46280    0.054
 5130.00    1.47465   1.46650    0.055
 5131.00    1.40056   1.46973    0.055
 5132.00    1.44380   1.47260    0.054
 5133.00    1.52807   1.47372    0.054
 5134.00    1.52306   1.47390    0.054
 5135.00    1.49174   1.47209    0.054
 5136.00    1.53948   1.46922    0.054
 5137.00    1.60654   1.46506    0.054
 5138.00    1.59215   1.46023    0.054
 5139.00    1.56167   1.45518    0.055
 5140.00    1.55626   1.45000    0.054
 5141.00    1.55470   1.44550    0.053
 5142.00    1.51154   1.44130    0.053
 5143.00    1.46363   1.43833    0.052
 5144.00    1.49245   1.43607    0.052
 5145.00    1.52713   1.43523    0.053
 5146.00    1.53250   1.43537    0.053
 5147.00    1.53666   1.43705    0.053
 5148.00    1.52345   1.43996    0.053
 5149.00    1.51152   1.44416    0.053
 5150.00    1.55908   1.44955    0.053
 5151.00    1.60182   1.45532    0.053
 5152.00    1.56085   1.46141    0.053
 5153.00    1.52887   1.46655    0.053
 5154.00    1.59259   1.47030    0.053
 5155.00    1.64789   1.47101    0.054
 5156.00    1.63991   1.46844    0.053
 5157.00    1.63057   1.46096    0.052
 5158.00    1.61349   1.44870    0.053
 5159.00    1.60205   1.43069    0.053
 5160.00    1.61632   1.40800    0.053
 5161.00    1.61998   1.38073    0.053
 5162.00    1.58409   1.35093    0.052
 5163.00    1.54414   1.31944    0.052
 5164.00    1.49156   1.28866    0.052
 5165.00    1.44939   1.26012    0.052
 5166.00    1.43478   1.23555    0.052
 5167.00    1.41608   1.21662    0.053
 5168.00    1.38805   1.20362    0.053
 5169.00    1.37592   1.19750    0.053
 5170.00    1.39510   1.19720    0.053
 5171.00    1.41619   1.20244    0.053
 5172.00    1.44055   1.21146    0.053
 5173.00    1.46057   1.22329    0.053
 5174.00    1.47408   1.23580    0.053
 5175.00    1.49517   1.24801    0.054
 5176.00    1.52627   1.25858    0.054
 5177.00    1.53063   1.26753    0.054
 5178.00    1.50391   1.27442    0.053
 5179.00    1.45830   1.28005    0.053
 5180.00    1.39333   1.28481    0.052
 5181.00    1.35710   1.29058    0.052
 5182.00    1.34686   1.29744    0.052
 5183.00    1.36486   1.30612    0.052
 5184.00    1.40536   1.31692    0.053
 5185.00    1.42120   1.32930    0.053
 5186.00    1.41976   1.34346    0.053
 5187.00    1.46393   1.35796    0.054
 5188.00    1.53617   1.37309    0.054
 5189.00    1.52220   1.38728    0.054
 5190.00    1.46189   1.40082    0.000
 5191.00    1.48103   1.41313    0.000
 5192.00    1.53727   1.42413    0.000
 5193.00    1.58115   1.43364    0.000
 5194.00    1.62005   1.44095    0.000
 5195.00    1.63136   1.44659    0.000
 5196.00    1.63319   1.44931    0.000
 5197.00    1.61846   1.45023    0.000
 5198.00    1.59895   1.44791    0.000
 5199.00    1.58778   1.44346    0.000
 5200.00    1.57860   1.43686    0.000
 5201.00    1.59943   1.42913    0.000
 5202.00    1.62604   1.42072    0.000
 5203.00    1.59986   1.41272    0.000
 5204.00    1.56580   1.40689    0.000
 5205.00    1.51571   1.40302    0.000
 5206.00    1.46386   1.40338    0.000
 5207.00    1.51083   1.40655    0.000
 5208.00    1.56493   1.41430    0.000
 5209.00    1.57995   1.42437    0.000
 5210.00    1.59350   1.43757    0.000
 5211.00    1.56496   1.45169    0.053
 5212.00    1.53691   1.46614    0.052
 5213.00    1.53365   1.48009    0.052
 5214.00    1.53059   1.49195    0.051
 5215.00    1.53077   1.50164    0.052
 5216.00    1.53072   1.50771    0.052
 5217.00    1.52831   1.51125    0.052
 5218.00    1.52753   1.51132    0.052
 5219.00    1.53865   1.50881    0.053
 5220.00    1.54991   1.50391    0.053
 5221.00    1.56206   1.49752    0.053
 5222.00    1.57829   1.49080    0.052
 5223.00    1.61270   1.48438    0.053
 5224.00    1.63671   1.48000    0.053
 5225.00    1.62271   1.47765    0.053
 5226.00    1.60379   1.47826    0.052
 5227.00    1.56976   1.48161    0.052
 5228.00    1.53563   1.48802    0.051
 5229.00    1.50121   1.49693    0.051
 5230.00    1.49282   1.50811    0.051
 5231.00    1.54268   1.52081    0.051
 5232.00    1.57733   1.53446    0.052
 5233.00    1.58250   1.54843    0.052
 5234.00    1.58275   1.56190    0.052
 5235.00    1.57466   1.57475    0.051
 5236.00    1.58403   1.58536    0.051
 5237.00    1.61926   1.59369    0.052
 5238.00    1.64605   1.59950    0.053
 5239.00    1.66186   1.60303    0.053
 5240.00    1.64752   1.60322    0.052
 5241.00    1.59860   1.60127    0.052
 5242.00    1.57720   1.59719    0.052
 5243.00    1.58364   1.59106    0.053
 5244.00    1.57888   1.58373    0.053
 5245.00    1.56414   1.57544    0.053
 5246.00    1.56023   1.56800    0.053
 5247.00    1.56483   1.56128    0.052
 5248.00    1.56209   1.55625    0.053
 5249.00    1.55427   1.55237    0.054
 5250.00    1.57266   1.55021    0.054
 5251.00    1.60693   1.54872    0.054
 5252.00    1.58897   1.54750    0.054
 5253.00    1.54337   1.54585    0.053
 5254.00    1.55776   1.54228    0.053
 5255.00    1.59968   1.53689    0.054
 5256.00    1.61158   1.52753    0.054
 5257.00    1.61160   1.51596    0.054
 5258.00    1.60805   1.49960    0.054
 5259.00    1.60328   1.48055    0.054
 5260.00    1.62821   1.45858    0.055
 5261.00    1.66156   1.43629    0.055
 5262.00    1.63585   1.41447    0.055
 5263.00    1.59636   1.39430    0.056
 5264.00    1.57353   1.37821    0.055
 5265.00    1.55383   1.36543    0.055
 5266.00    1.47234   1.35920    0.055
 5267.00    1.38190   1.35819    0.056
 5268.00    1.40528   1.36399    0.055
 5269.00    1.44062   1.37492    0.055
 5270.00    1.48971   1.39082    0.055
 5271.00    1.53974   1.41024    0.055
 5272.00    1.55624   1.43190    0.055
 5273.00    1.57161   1.45502    0.055
 5274.00    1.57575   1.47720    0.054
 5275.00    1.57865   1.49946    0.054
 5276.00    1.54237   1.52022    0.053
 5277.00    1.51140   1.53986    0.052
 5278.00    1.56108   1.55727    0.052
 5279.00    1.60453   1.57319    0.052
 5280.00    1.58729   1.58757    0.052
 5281.00    1.57685   1.60084    0.051
 5282.00    1.61434   1.61406    0.052
 5283.00    1.65141   1.62577    0.052
 5284.00    1.68622   1.63675    0.052
 5285.00    1.70674   1.64578    0.052
 5286.00    1.66515   1.65320    0.052
 5287.00    1.63488   1.65802    0.051
 5288.00    1.64516   1.66009    0.052
 5289.00    1.65708   1.65922    0.052
 5290.00    1.67393   1.65559    0.052
 5291.00    1.68051   1.65014    0.051
 5292.00    1.66087   1.64231    0.051
 5293.00    1.64420   1.63369    0.051
 5294.00    1.63408   1.62525    0.052
 5295.00    1.62226   1.61863    0.052
 5296.00    1.60722   1.61440    0.052
 5297.00    1.59683   1.61272    0.052
 5298.00    1.59416   1.61467    0.052
 5299.00    1.60766   1.61941    0.052
 5300.00    1.64476   1.62782    0.052
 5301.00    1.67772   1.63816    0.052
 5302.00    1.70537   1.65019    0.052
 5303.00    1.72616   1.66279    0.052
 5304.00    1.73919   1.67555    0.053
 5305.00    1.70896   1.68722    0.053
 5306.00    1.63558   1.69641    0.052
 5307.00    1.61059   1.70361    0.052
 5308.00    1.62818   1.70811    0.052
 5309.00    1.64241   1.71008    0.052
 5310.00    1.65404   1.70952    0.052
 5311.00    1.64585   1.70606    0.052
 5312.00    1.62414   1.70050    0.052
 5313.00    1.62655   1.69270    0.052
 5314.00    1.64334   1.68342    0.052
 5315.00    1.66415   1.67201    0.052
 5316.00    1.68704   1.65843    0.053
 5317.00    1.68985   1.64414    0.053
 5318.00    1.68358   1.62805    0.052
 5319.00    1.67716   1.61121    0.053
 5320.00    1.67069   1.59235    0.053
 5321.00    1.62759   1.57566    0.052
 5322.00    1.57239   1.55972    0.051
 5323.00    1.54597   1.54634    0.051
 5324.00    1.52753   1.53480    0.051
 5325.00    1.56452   1.52625    0.051
 5326.00    1.61416   1.52270    0.052
 5327.00    1.60064   1.52201    0.052
 5328.00    1.57560   1.52600    0.051
 5329.00    1.58112   1.53178    0.051
 5330.00    1.59094   1.54165    0.050
 5331.00    1.62342   1.55218    0.050
 5332.00    1.65819   1.56227    0.049
 5333.00    1.66170   1.57187    0.050
 5334.00    1.66321   1.58202    0.051
 5335.00    1.61986   1.59124    0.050
 5336.00    1.57524   1.59762    0.050
 5337.00    1.56191   1.60161    0.049
 5338.00    1.54976   1.60379    0.049
 5339.00    1.57173   1.60631    0.049
 5340.00    1.59482   1.60772    0.050
 5341.00    1.63399   1.60920    0.049
 5342.00    1.66785   1.61143    0.049
 5343.00    1.65198   1.61571    0.049
 5344.00    1.63665   1.62101    0.049
 5345.00    1.62497   1.62746    0.049
 5346.00    1.61551   1.63618    0.049
 5347.00    1.61778   1.64728    0.050
 5348.00    1.62201   1.65895    0.050
 5349.00    1.63461   1.67092    0.049
 5350.00    1.64359   1.68321    0.049
 5351.00    1.63984   1.69508    0.049
 5352.00    1.63605   1.70624    0.049
 5353.00    1.63216   1.71566    0.049
 5354.00    1.63746   1.72200    0.050
 5355.00    1.66584   1.72656    0.050
 5356.00    1.68191   1.72785    0.050
 5357.00    1.67132   1.72518    0.049
 5358.00    1.64837   1.71982    0.049
 5359.00    1.60225   1.71061    0.050
 5360.00    1.58625   1.70037    0.051
 5361.00    1.61968   1.68672    0.051
 5362.00    1.64572   1.67229    0.051
 5363.00    1.66113   1.65708    0.051
 5364.00    1.64330   1.64286    0.051
 5365.00    1.58341   1.63109    0.051
 5366.00    1.56391   1.62056    0.052
 5367.00    1.58942   1.61434    0.052
 5368.00    1.60929   1.60968   -2.000
 5369.00    1.62360   1.60949   -2.000
 5370.00    1.62858   1.61119   -2.000
 5371.00    1.62548   1.61629   -2.000
 5372.00    1.64274   1.62338   -2.000
 5373.00    1.67556   1.63112   -2.000
 5374.00    1.68639   1.64020   -2.000
 5375.00    1.68244   1.64762   -2.000
 5376.00    1.65499   1.65587   -2.000
 5377.00    1.61371   1.66210   -2.000
 5378.00    1.62169   1.66736   -2.000
 5379.00    1.65493   1.66976   -2.000
 5380.00    1.65437   1.66937   -2.000
 5381.00    1.63881   1.66725   -2.000
 5382.00    1.64374   1.66249   -2.000
 5383.00    1.65650   1.65684    0.051
 5384.00    1.67139   1.64909    0.050
 5385.00    1.68697   1.64061    0.050
 5386.00    1.65561   1.63037    0.049
 5387.00    1.61152   1.62028    0.049
 5388.00    1.62634   1.60905    0.049
 5389.00    1.65429   1.59740    0.049
 5390.00    1.65362   1.58687    0.049
 5391.00    1.64787   1.57564    0.049
 5392.00    1.59941   1.56620    0.048
 5393.00    1.54515   1.55716    0.048
 5394.00    1.53630   1.54970    0.048
 5395.00    1.53184   1.54222    0.048
 5396.00    1.55471   1.53616    0.048
 5397.00    1.57921   1.53013    0.049
 5398.00    1.56617   1.52430    0.048
 5399.00    1.55227   1.51965    0.048
 5400.00    1.55959   1.51518    0.048
 5401.00    1.56667   1.51289    0.048
 5402.00    1.56777   1.51071    0.048
 5403.00    1.56686   1.51093    0.048
 5404.00    1.53854   1.51256    0.048
 5405.00    1.51705   1.51680    0.048
 5406.00    1.55698   1.52290    0.049
 5407.00    1.59009   1.53112    0.050
 5408.00    1.57819   1.54167    0.049
 5409.00    1.56882   1.55329    0.049
 5410.00    1.57245   1.56753    0.049
 5411.00    1.57937   1.58182    0.048
 5412.00    1.59998   1.59601    0.049
 5413.00    1.62142   1.60860    0.049
 5414.00    1.64566   1.61987    0.050
 5415.00    1.65702   1.62910    0.050
 5416.00    1.63110   1.63638    0.049
 5417.00    1.61657   1.64161    0.049
 5418.00    1.63017   1.64326    0.050
 5419.00    1.62056   1.64407    0.050
 5420.00    1.56156   1.64288    0.049
 5421.00    1.52884   1.63942    0.049
 5422.00    1.54474   1.63469    0.048
 5423.00    1.55680   1.62752    0.048
 5424.00    1.56262   1.62028    0.049
 5425.00    1.56093   1.61435    0.050
 5426.00    1.54858   1.60714    0.050
 5427.00    1.55896   1.60066    0.049
 5428.00    1.59768   1.59507    0.048
 5429.00    1.59770   1.59137    0.048
 5430.00    1.55518   1.59009    0.048
 5431.00    1.53605   1.59083    0.048
 5432.00    1.53961   1.59396    0.048
 5433.00    1.54909   1.59819    0.048
 5434.00    1.56363   1.60563    0.048
 5435.00    1.59273   1.61282    0.048
 5436.00    1.63279   1.62133    0.048
 5437.00    1.63670   1.62900    0.048
 5438.00    1.61667   1.63431    0.047
 5439.00    1.62741   1.63868    0.047
 5440.00    1.65597   1.64033    0.047
 5441.00    1.66210   1.64046    0.047
 5442.00    1.65691   1.64006    0.047
 5443.00    1.63510   1.63719    0.046
 5444.00    1.60603   1.63324    0.046
 5445.00    1.59944   1.62752    0.046
 5446.00    1.60127   1.62193    0.046
 5447.00    1.59623   1.61582    0.046
 5448.00    1.58901   1.61003    0.046
 5449.00    1.59755   1.60452    0.047
 5450.00    1.61027   1.60002    0.047
 5451.00    1.60846   1.59941    0.047
 5452.00    1.60347   1.59826    0.047
 5453.00    1.59931   1.59875    0.047
 5454.00    1.59528   1.59801    0.048
 5455.00    1.58405   1.59801    0.048
 5456.00    1.57187   1.59805    0.047
 5457.00    1.59227   1.59790    0.047
 5458.00    1.61569   1.59898    0.047
 5459.00    1.62015   1.60041    0.048
 5460.00    1.62355   1.60220    0.048
 5461.00    1.61703   1.60310    0.048
 5462.00    1.61037   1.60424    0.048
 5463.00    1.61161   1.60365    0.048
 5464.00    1.61322   1.60164    0.048
 5465.00    1.62318   1.59908    0.048
 5466.00    1.63372   1.59595    0.049
 5467.00    1.65163   1.59147    0.049
 5468.00    1.66741   1.58682    0.049
 5469.00    1.66485   1.58163    0.049
 5470.00    1.66101   1.57467    0.049
 5471.00    1.64901   1.56794    0.049
 5472.00    1.63612   1.56300    0.048
 5473.00    1.61880   1.55864    0.048
 5474.00    1.60126   1.55477    0.048
 5475.00    1.58285   1.55100    0.048
 5476.00    1.57446   1.55012    0.048
 5477.00    1.59980   1.55089    0.048
 5478.00    1.61370   1.55403   -2.000
 5479.00    1.59509   1.55797   -2.000
 5480.00    1.58173   1.56226   -2.000
 5481.00    1.58110   1.56795   -2.000
 5482.00    1.59849   1.57329   -2.000
 5483.00    1.65362   1.58054   -2.000
 5484.00    1.69036   1.58512   -2.000
 5485.00    1.69363   1.59092   -2.000
 5486.00    1.71609   1.59600   -2.000
 5487.00    1.76910   1.59979   -2.000
 5488.00    1.73196   1.60342   -2.000
 5489.00    1.56888   1.60623   -2.000
 5490.00    1.48140   1.60800   -2.000
 5491.00    1.48687   1.60765   -2.000
 5492.00    1.50703   1.60882   -2.000
 5493.00    1.54313   1.60970   -2.000
 5494.00    1.58394   1.60948   -2.000
 5495.00    1.62923   1.60780   -2.000
 5496.00    1.64025   1.60525   -2.000
 5497.00    1.62236   1.60301   -2.000
 5498.00    1.61331   1.60025   -2.000
 5499.00    1.61082   1.59738   -2.000
 5500.00    1.62526   1.59224   -2.000
 5501.00    1.65075   1.58861   -2.000
 5502.00    1.63879   1.58611    0.046
 5503.00    1.60546   1.58255    0.047
 5504.00    1.59821   1.57884    0.047
 5505.00    1.60392   1.57548    0.047
 5506.00    1.62184   1.57216    0.047
 5507.00    1.64501   1.57035    0.047
 5508.00    1.62604   1.56970    0.047
 5509.00    1.59154   1.56981    0.046
 5510.00    1.59939   1.57155    0.047
 5511.00    1.62046   1.57478    0.048
 5512.00    1.59658   1.57963    0.047
 5513.00    1.56100   1.58433    0.047
 5514.00    1.55114   1.59000    0.047
 5515.00    1.54674   1.59496    0.047
 5516.00    1.57739   1.60078    0.047
 5517.00    1.61392   1.60628    0.048
 5518.00    1.60292   1.61096    0.048
 5519.00    1.58589   1.61455    0.048
 5520.00    1.60011   1.61625    0.048
 5521.00    1.61709   1.61692    0.047
 5522.00    1.60151   1.61523    0.047
 5523.00    1.58422   1.61364    0.046
 5524.00    1.59475   1.61188    0.047
 5525.00    1.60563   1.60991    0.047
 5526.00    1.60426   1.60795    0.046
 5527.00    1.60310   1.60631    0.046
 5528.00    1.60659   1.60559    0.046
 5529.00    1.61033   1.60460    0.046
 5530.00    1.61721   1.60586    0.046
 5531.00    1.62233   1.60711    0.046
 5532.00    1.61288   1.60980    0.046
 5533.00    1.60852   1.61449    0.045
 5534.00    1.63582   1.61851    0.046
 5535.00    1.66026   1.62341    0.046
 5536.00    1.67077   1.62734    0.046
 5537.00    1.67450   1.63151    0.045
 5538.00    1.65131   1.63541    0.045
 5539.00    1.62658   1.63984    0.045
 5540.00    1.59677   1.64401    0.045
 5541.00    1.57565   1.64766    0.044
 5542.00    1.57880   1.65223    0.045
 5543.00    1.58703   1.65581    0.044
 5544.00    1.60742   1.65927    0.043
 5545.00    1.61743   1.66161    0.042
 5546.00    1.60603   1.66312    0.044
 5547.00    1.59242   1.66388    0.044
 5548.00    1.57485   1.66430    0.044
 5549.00    1.57560   1.66366    0.044
 5550.00    1.60508   1.66259    0.044
 5551.00    1.61417   1.66109    0.045
 5552.00    1.59518   1.65817    0.045
 5553.00    1.57875   1.65488    0.046
 5554.00    1.56543   1.65029    0.046
 5555.00    1.56390   1.64569    0.046
 5556.00    1.57496   1.63991    0.046
 5557.00    1.58849   1.63393    0.046
 5558.00    1.60433   1.62885    0.046
 5559.00    1.59739   1.62316    0.046
 5560.00    1.57151   1.61773    0.046
 5561.00    1.55581   1.61226    0.046
 5562.00    1.54755   1.60790    0.046
 5563.00    1.53845   1.60341    0.046
 5564.00    1.52883   1.59970    0.046
 5565.00    1.55029   1.59784    0.046
 5566.00    1.58922   1.59490    0.046
 5567.00    1.60652   1.59428    0.045
 5568.00    1.61326   1.59486    0.045
 5569.00    1.61650   1.59489    0.045
 5570.00    1.61827   1.59658    0.046
 5571.00    1.63391   1.59881    0.045
 5572.00    1.65458   1.60034    0.045
 5573.00    1.64480   1.60130    0.045
 5574.00    1.62571   1.60325    0.045
 5575.00    1.58993   1.60260    0.045
 5576.00    1.54989   1.60022    0.044
 5577.00    1.55264   1.59875    0.044
 5578.00    1.56425   1.59458    0.044
 5579.00    1.56215   1.58833    0.044
 5580.00    1.55782   1.58108    0.044
 5581.00    1.55431   1.57207    0.044
 5582.00    1.55090   1.56258    0.045
 5583.00    1.55385   1.55339    0.045
 5584.00    1.55734   1.54536    0.045
 5585.00    1.55381   1.53750    0.044
 5586.00    1.54994   1.53172    0.044
 5587.00    1.51260   1.52787    0.044
 5588.00    1.47533   1.52391    0.044
 5589.00    1.47229   1.52303    0.045
 5590.00    1.47083   1.52343    0.045
 5591.00    1.50087   1.52601    0.045
 5592.00    1.52761   1.52982    0.046
 5593.00    1.51601   1.53425    0.046
 5594.00    1.50835   1.53918    0.046
 5595.00    1.53230   1.54345    0.046
 5596.00    1.55324   1.54900    0.046
 5597.00    1.55605   1.55371    0.047
 5598.00    1.55830   1.56079    0.047
 5599.00    1.55788   1.56871    0.048
 5600.00    1.55749   1.57708    0.048
 5601.00    1.55723   1.58420    0.048
 5602.00    1.56102   1.59136    0.047
 5603.00    1.57788   1.59971    0.048
 5604.00    1.58560   1.60569    0.048
 5605.00    1.56824   1.61226    0.047
 5606.00    1.55264   1.61662    0.046
 5607.00    1.54117   1.62062    0.046
 5608.00    1.54532   1.62217    0.046
 5609.00    1.58118   1.61951    0.045
 5610.00    1.60366   1.61595    0.045
 5611.00    1.60253   1.60967    0.045
 5612.00    1.59402   1.60383    0.045
 5613.00    1.57410   1.59838    0.045
 5614.00    1.55495   1.59214    0.044
 5615.00    1.53685   1.58679    0.044
 5616.00    1.52140   1.58155    0.043
 5617.00    1.50913   1.57738    0.043
 5618.00    1.50795   1.57236    0.043
 5619.00    1.51846   1.57014    0.043
 5620.00    1.51853   1.57139    0.043
 5621.00    1.50892   1.57229    0.043
 5622.00    1.51819   1.57463    0.043
 5623.00    1.54292   1.57772    0.043
 5624.00    1.54905   1.58151    0.043
 5625.00    1.54178   1.58598    0.043
 5626.00    1.55193   1.58972    0.043
 5627.00    1.57310   1.59245    0.043
 5628.00    1.58356   1.59462    0.043
 5629.00    1.58810   1.59805    0.043
 5630.00    1.56554   1.59985    0.043
 5631.00    1.52995   1.59974    0.044
 5632.00    1.51481   1.59963    0.044
 5633.00    1.50817   1.59829    0.043
 5634.00    1.51694   1.59656    0.043
 5635.00    1.53118   1.59380    0.044
 5636.00    1.53607   1.59167    0.044
 5637.00    1.53815   1.58884    0.044
 5638.00    1.55707   1.58696    0.045
 5639.00    1.58017   1.58659    0.045
 5640.00    1.57077   1.58566    0.045
 5641.00    1.55480   1.58664    0.044
 5642.00    1.53967   1.58761    0.045
 5643.00    1.52468   1.58918    0.045
 5644.00    1.52786   1.58963    0.045
 5645.00    1.53318   1.59019    0.044
 5646.00    1.55615   1.59167    0.044
 5647.00    1.58052   1.59181    0.044
 5648.00    1.56184   1.59157    0.044
 5649.00    1.54124   1.58975    0.044
 5650.00    1.55244   1.58732    0.044
 5651.00    1.56310   1.58358    0.044
 5652.00    1.53047   1.57911    0.044
 5653.00    1.49976   1.57489    0.044
 5654.00    1.50422   1.56987    0.043
 5655.00    1.50888   1.56615    0.043
 5656.00    1.51582   1.56361    0.043
 5657.00    1.51984   1.56086    0.043
 5658.00    1.50126   1.55869    0.043
 5659.00    1.48834   1.55952    0.042
 5660.00    1.50864   1.56236    0.042
 5661.00    1.52399   1.56366    0.042
 5662.00    1.51625   1.56766    0.042
 5663.00    1.50843   1.57423    0.042
 5664.00    1.50029   1.58049    0.043
 5665.00    1.49862   1.58628    0.043
 5666.00    1.51750   1.59337    0.043
 5667.00    1.53660   1.60155    0.042
 5668.00    1.55633   1.60889    0.042
 5669.00    1.56817   1.61550    0.042
 5670.00    1.56181   1.62088    0.042
 5671.00    1.55851   1.62511    0.042
 5672.00    1.56130   1.62923    0.043
 5673.00    1.55030   1.63239    0.044
 5674.00    1.51532   1.63360    0.044
 5675.00    1.51078   1.63384    0.044
 5676.00    1.55256   1.63263    0.044
 5677.00    1.58313   1.63067    0.045
 5678.00    1.59869   1.62624    0.045
 5679.00    1.59506   1.62291    0.045
 5680.00    1.56883   1.62026    0.045
 5681.00    1.55259   1.61683    0.045
 5682.00    1.54671   1.61346    0.045
 5683.00    1.53401   1.61033    0.044
 5684.00    1.51506   1.60957    0.044
 5685.00    1.50772   1.60799    0.044
 5686.00    1.50975   1.60905    0.044
 5687.00    1.53217   1.61024    0.045
 5688.00    1.56907   1.61197    0.044
 5689.00    1.57283   1.61287    0.044
 5690.00    1.55594   1.61222    0.043
 5691.00    1.55486   1.61272    0.043
 5692.00    1.56240   1.61142    0.043
 5693.00    1.57316   1.61078    0.043
 5694.00    1.58544   1.60659    0.043
 5695.00    1.58093   1.60177    0.043
 5696.00    1.56955   1.59641    0.043
 5697.00    1.57164   1.58841    0.044
 5698.00    1.57843   1.58102    0.044
 5699.00    1.56881   1.57364    0.044
 5700.00    1.55436   1.56674    0.044
 5701.00    1.52878   1.55854    0.043
 5702.00    1.50048   1.55089    0.043
 5703.00    1.48919   1.54507    0.042
 5704.00    1.48124   1.54029    0.042
 5705.00    1.46574   1.53641    0.042
 5706.00    1.44908   1.53652    0.041
 5707.00    1.45586   1.53850    0.041
 5708.00    1.46529   1.54097    0.041
 5709.00    1.48307   1.54688    0.042
 5710.00    1.50147   1.55429    0.042
 5711.00    1.52330   1.56350    0.042
 5712.00    1.54526   1.57363    0.042
 5713.00    1.56173   1.58538    0.042
 5714.00    1.57793   1.59759    0.043
 5715.00    1.58415   1.60893    0.043
 5716.00    1.58985   1.62075    0.043
 5717.00    1.58671   1.63175    0.043
 5718.00    1.58248   1.64086    0.044
 5719.00    1.56677   1.64876    0.044
 5720.00    1.55571   1.65463    0.044
 5721.00    1.57948   1.65860    0.044
 5722.00    1.59807   1.66214    0.044
 5723.00    1.58708   1.66349    0.044
 5724.00    1.58033   1.66487    0.043
 5725.00    1.59280   1.66587    0.043
 5726.00    1.60640   1.66557    0.043
 5727.00    1.62422   1.66400    0.044
 5728.00    1.63372   1.66245    0.044
 5729.00    1.61734   1.66294    0.044
 5730.00    1.60141   1.66209    0.044
 5731.00    1.58668   1.66218    0.043
 5732.00    1.57745   1.66258    0.043
 5733.00    1.58068   1.66230    0.043
 5734.00    1.58212   1.66194    0.042
 5735.00    1.58001   1.66176    0.041
 5736.00    1.59070   1.66261    0.041
 5737.00    1.62329   1.66224    0.042
 5738.00    1.64435   1.66178    0.042
 5739.00    1.64808   1.66096    0.042
 5740.00    1.64793   1.66023    0.000
 5741.00    1.64267   1.65926    0.000
 5742.00    1.64427   1.65742    0.000
 5743.00    1.65384   1.65495    0.000
 5744.00    1.65659   1.65151    0.000
 5745.00    1.65234   1.64980    0.000
 5746.00    1.65193   1.64796    0.000
 5747.00    1.65501   1.64592    0.000
 5748.00    1.65420   1.64279    0.000
 5749.00    1.65029   1.63892    0.000
 5750.00    1.65062   1.63552    0.000
 5751.00    1.65390   1.63318    0.000
 5752.00    1.64888   1.63338    0.000
 5753.00    1.63875   1.63359    0.000
 5754.00    1.61149   1.63354    0.000
 5755.00    1.57504   1.63238    0.000
 5756.00    1.57839   1.63163    0.000
 5757.00    1.60028   1.63191    0.000
 5758.00    1.63989   1.63370    0.000
 5759.00    1.68662   1.63665    0.000
 5760.00    1.68326   1.64079    0.000
 5761.00    1.66276   1.64414    0.000
 5762.00    1.64229   1.64659    0.000
 5763.00    1.62183   1.64893    0.000
 5764.00    1.60446   1.65128    0.000
 5765.00    1.58782   1.65405    0.000
 5766.00    1.57454   1.65584    0.000
 5767.00    1.56190   1.65804    0.000
 5768.00    1.58763   1.65764    0.000
 5769.00    1.61908   1.65584    0.000
 5770.00    1.62068   1.65195    0.000
 5771.00    1.61904   1.64719    0.000
 5772.00    1.61085   1.64240    0.000
 5773.00    1.60218   1.63563    0.000
 5774.00    1.60163   1.62790    0.000
 5775.00    1.60138   1.61885    0.000
 5776.00    1.60559   1.60966    0.000
 5777.00    1.60902   1.59928    0.000
 5778.00    1.58392   1.59124    0.000
 5779.00    1.55883   1.58470    0.000
 5780.00    1.53402   1.57869    0.000
 5781.00    1.51285   1.57313    0.000
 5782.00    1.52861   1.56997    0.000
 5783.00    1.54430   1.57102    0.000
 5784.00    1.55945   1.57185    0.000
 5785.00    1.57518   1.57630    0.000
 5786.00    1.59411   1.58133    0.000
 5787.00    1.60926   1.58610    0.000
 5788.00    1.60767   1.59427    0.000
 5789.00    1.60369   1.60266    0.000
 5790.00    1.59102   1.61262    0.000
 5791.00    1.57615   1.62178   -2.000
 5792.00    1.55459   1.62924   -2.000
 5793.00    1.53779   1.63568   -2.000
 5794.00    1.53335   1.64029   -2.000
 5795.00    1.53709   1.64781   -2.000
 5796.00    1.55910   1.65495   -2.000
 5797.00    1.56917   1.65917   -2.000
 5798.00    1.55614   1.66312   -2.000
 5799.00    1.55914   1.66490   -2.000
 5800.00    1.58917   1.66526   -2.000
 5801.00    1.61103   1.66588   -2.000
 5802.00    1.62082   1.66757   -2.000
 5803.00    1.62975   1.66917   -2.000
 5804.00    1.63753   1.66897   -2.000
 5805.00    1.64163   1.66794   -2.000
 5806.00    1.64151   1.66744   -2.000
 5807.00    1.64113   1.66717   -2.000
 5808.00    1.64050   1.66694   -2.000
 5809.00    1.64830   1.66797   -2.000
 5810.00    1.66359   1.66844   -2.000
 5811.00    1.66755   1.66873    0.000
 5812.00    1.66261   1.66878    0.000
 5813.00    1.65899   1.67019    0.000
 5814.00    1.65628   1.67390    0.000
 5815.00    1.65110   1.67617    0.000
 5816.00    1.64442   1.67883    0.000
 5817.00    1.62701   1.68113    0.000
 5818.00    1.60394   1.68336    0.000
 5819.00    1.59842   1.68593    0.000
 5820.00    1.60094   1.68844    0.000
 5821.00    1.61571   1.69227    0.000
 5822.00    1.63532   1.69421    0.000
 5823.00    1.64966   1.69527    0.000
 5824.00    1.66224   1.69598    0.000
 5825.00    1.65810   1.69671    0.000
 5826.00    1.64924   1.69739    0.000
 5827.00    1.65614   1.69669    0.000
 5828.00    1.66670   1.69649    0.000
 5829.00    1.67044   1.69588    0.000
 5830.00    1.67290   1.69435    0.000
 5831.00    1.65364   1.69296    0.000
 5832.00    1.63124   1.69278    0.000
 5833.00    1.62393   1.69249    0.000
 5834.00    1.61819   1.69060    0.000
 5835.00    1.64896   1.68931    0.000
 5836.00    1.68219   1.68894    0.000
 5837.00    1.66402   1.68803    0.000
 5838.00    1.64415   1.68664    0.000
 5839.00    1.60873   1.68514    0.000
 5840.00    1.57535   1.68293    0.000
 5841.00    1.60698   1.67932    0.000
 5842.00    1.63680   1.67484    0.000
 5843.00    1.63919   1.67006    0.000
 5844.00    1.63915   1.66469    0.000
 5845.00    1.61549   1.65898    0.000
 5846.00    1.59715   1.65216    0.000
 5847.00    1.61605   1.64462    0.000
 5848.00    1.63178   1.63629    0.000
 5849.00    1.63036   1.62739    0.000
 5850.00    1.61963   1.62062    0.000
 5851.00    1.56853   1.61464    0.000
 5852.00    1.53184   1.60896    0.000
 5853.00    1.54657   1.60219    0.000
 5854.00    1.56086   1.59667    0.000
 5855.00    1.57382   1.59455    0.000
 5856.00    1.58386   1.59286    0.000
 5857.00    1.58644   1.59351    0.000
 5858.00    1.59216   1.59361    0.000
 5859.00    1.60478   1.59486    0.000
 5860.00    1.60801   1.59769    0.000
 5861.00    1.59336   1.60098    0.000
 5862.00    1.57353   1.60511    0.000
 5863.00    1.54512   1.60864    0.000
 5864.00    1.53367   1.61344    0.000
 5865.00    1.54693   1.61752    0.000
 5866.00    1.56311   1.62127    0.000
 5867.00    1.58304   1.62426    0.000
 5868.00    1.60710   1.62614    0.000
 5869.00    1.63581   1.62640    0.000
 5870.00    1.64051   1.62637    0.000
 5871.00    1.62130   1.62610    0.000
 5872.00    1.60634   1.62345    0.000
 5873.00    1.59511   1.61918    0.000
 5874.00    1.59539   1.61232    0.000
 5875.00    1.60457   1.60444    0.000
 5876.00    1.59384   1.59435    0.000
 5877.00    1.56957   1.58319    0.000
 5878.00    1.56859   1.57044    0.000
 5879.00    1.58149   1.55304    0.000
 5880.00    1.58164   1.53313    0.000
 5881.00    1.57516   1.51207    0.000
 5882.00    1.53850   1.49222    0.000
 5883.00    1.48823   1.47117    0.000
 5884.00    1.46312   1.44692    0.000
 5885.00    1.44777   1.42052    0.000
 5886.00    1.44392   1.39342    0.000
 5887.00    1.44386   1.37466    0.000
 5888.00    1.43865   1.36196    0.000
 5889.00    1.43201   1.35062    0.000
 5890.00    1.41262   1.34288    0.000
 5891.00    1.39032   1.33409    0.000
 5892.00    1.38851   1.33033    0.000
 5893.00    1.39043   1.33824    0.000
 5894.00    1.41442   1.35287    0.000
 5895.00    1.44150   1.37042    0.000
 5896.00    1.45040   1.38721    0.000
 5897.00    1.45747   1.40506    0.000
 5898.00    1.47461   1.42509    0.000
 5899.00    1.49240   1.44628    0.000
 5900.00    1.50322   1.47012    0.000
 5901.00    1.51383   1.49194    0.043
 5902.00    1.52305   1.50973    0.042
 5903.00    1.53250   1.52566    0.041
 5904.00    1.54883   1.53930    0.042
 5905.00    1.56386   1.55108    0.042
 5906.00    1.56040   1.56117    0.042
 5907.00    1.55693   1.56869    0.042
 5908.00    1.55336   1.57468    0.041
 5909.00    1.55100   1.57862    0.041
 5910.00    1.55691   1.58030    0.040
 5911.00    1.56203   1.58271    0.040
 5912.00    1.56297   1.58391    0.040
 5913.00    1.56539   1.58530    0.040
 5914.00    1.57414   1.58697    0.039
 5915.00    1.57922   1.58777    0.039
 5916.00    1.57144   1.58968    0.039
 5917.00    1.56512   1.59062    0.039
 5918.00    1.56313   1.59169    0.040
 5919.00    1.56347   1.59364    0.040
 5920.00    1.56963   1.59538    0.040
 5921.00    1.57771   1.59664    0.040
 5922.00    1.58990   1.59845    0.041
 5923.00    1.58878   1.59939    0.041
 5924.00    1.56271   1.59987    0.040
 5925.00    1.53685   1.59969    0.040
 5926.00    1.51136   1.59837    0.041
 5927.00    1.50449   1.60008    0.041
 5928.00    1.52439   1.60072    0.041
 5929.00    1.54561   1.60078    0.042
 5930.00    1.56851   1.60040    0.042
 5931.00    1.57642   1.59866    0.042
 5932.00    1.56768   1.59979    0.042
 5933.00    1.56077   1.60009    0.042
 5934.00    1.55567   1.60103    0.042
 5935.00    1.56491   1.60272    0.042
 5936.00    1.58655   1.60235    0.041
 5937.00    1.59273   1.60196    0.041
 5938.00    1.58712   1.60169    0.041
 5939.00    1.57163   1.60217    0.041
 5940.00    1.54952   1.60293    0.041
 5941.00    1.53594   1.60308    0.041
 5942.00    1.52736   1.60278    0.040
 5943.00    1.52983   1.60166    0.039
 5944.00    1.53795   1.59947    0.039
 5945.00    1.54599   1.59822    0.039
 5946.00    1.55399   1.59836    0.039
 5947.00    1.55622   1.59807    0.039
 5948.00    1.55626   1.59665    0.040
 5949.00    1.54670   1.59442    0.039
 5950.00    1.53404   1.59426    0.039
 5951.00    1.52391   1.59517    0.039
 5952.00    1.51446   1.59552    0.039
 5953.00    1.53065   1.59669    0.040
 5954.00    1.55252   1.59793    0.041
 5955.00    1.58510   1.60026    0.041
 5956.00    1.61958   1.60281    0.041
 5957.00    1.63373   1.60565    0.041
 5958.00    1.64514   1.61013    0.041
 5959.00    1.62338   1.61325    0.041
 5960.00    1.59843   1.61657    0.041
 5961.00    1.59516   1.61959    0.041
 5962.00    1.59317   1.62240    0.042
 5963.00    1.59833   1.62647    0.042
 5964.00    1.60350   1.62827    0.041
 5965.00    1.58225   1.63001    0.041
 5966.00    1.56139   1.63087    0.041
 5967.00    1.55063   1.63059    0.041
 5968.00    1.54204   1.63056    0.041
 5969.00    1.56258   1.62904    0.042
 5970.00    1.58231   1.62747    0.042
 5971.00    1.59487   1.62524    0.041
 5972.00    1.60467   1.62163    0.041
 5973.00    1.59631   1.61804    0.040
 5974.00    1.58760   1.61383    0.040
 5975.00    1.57704   1.60947    0.040
 5976.00    1.56536   1.60670    0.039
 5977.00    1.54901   1.60355    0.039
 5978.00    1.53591   1.60032    0.038
 5979.00    1.53397   1.59732    0.039
 5980.00    1.53256   1.59406    0.039
 5981.00    1.53267   1.59358    0.039
 5982.00    1.53106   1.59330    0.039
 5983.00    1.52521   1.59295    0.038
 5984.00    1.52205   1.59405    0.038
 5985.00    1.52458   1.59468    0.039
 5986.00    1.53229   1.59644    0.039
 5987.00    1.54953   1.59764    0.039
 5988.00    1.56861   1.59841    0.040
 5989.00    1.59064   1.60084    0.040
 5990.00    1.60263   1.60240    0.041
 5991.00    1.60043   1.60347    0.041
 5992.00    1.59183   1.60381    0.041
 5993.00    1.57529   1.60229    0.041
 5994.00    1.56353   1.60091    0.042
 5995.00    1.55701   1.60036    0.041
 5996.00    1.55214   1.59922    0.041
 5997.00    1.54885   1.59792    0.041
 5998.00    1.55250   1.59449    0.041
 5999.00    1.56208   1.58949    0.041
 6000.00    1.55517   1.58775    0.041
 6001.00    1.53585   1.58618    0.041
 6002.00    1.51895   1.58447    0.040
 6003.00    1.50365   1.58165    0.039
 6004.00    1.49209   1.57645    0.039
 6005.00    1.48270   1.57505    0.039
 6006.00    1.47996   1.57441    0.039
 6007.00    1.48056   1.57309    0.039
 6008.00    1.47743   1.57207    0.038
 6009.00    1.47267   1.56920    0.038
 6010.00    1.48469   1.56795    0.038
 6011.00    1.50298   1.56757    0.039
 6012.00    1.52644   1.56697    0.039
 6013.00    1.55155   1.56746    0.039
 6014.00    1.56216   1.56754    0.040
 6015.00    1.56892   1.56684    0.040
 6016.00    1.56975   1.56799    0.040
 6017.00    1.56929   1.56967    0.041
 6018.00    1.56995   1.57191    0.041
 6019.00    1.57081   1.57581    0.041
 6020.00    1.56212   1.57831    0.041
 6021.00    1.55220   1.58302    0.041
 6022.00    1.53602   1.58800    0.041
 6023.00    1.51927   1.59261    0.041
 6024.00    1.51797   1.59950    0.041
 6025.00    1.51753   1.60473    0.041
 6026.00    1.55128   1.61108    0.041
 6027.00    1.58549   1.61697    0.042
 6028.00    1.59076   1.62178    0.041
 6029.00    1.59516   1.62796    0.041
 6030.00    1.57961   1.63221    0.040
 6031.00    1.56575   1.63639    0.040
 6032.00    1.57349   1.64028    0.041
 6033.00    1.58163   1.64273    0.041
 6034.00    1.59322   1.64610    0.040
 6035.00    1.59972   1.64809    0.039
 6036.00    1.57369   1.64978    0.039
 6037.00    1.55233   1.65185    0.039
 6038.00    1.55433   1.65246    0.039
 6039.00    1.56117   1.65414    0.039
 6040.00    1.58760   1.65514    0.039
 6041.00    1.60782   1.65599    0.039
 6042.00    1.60720   1.65712    0.039
 6043.00    1.60429   1.65692    0.039
 6044.00    1.59486   1.65707    0.039
 6045.00    1.58836   1.65670    0.039
 6046.00    1.58893   1.65620    0.039
 6047.00    1.58672   1.65506    0.039
 6048.00    1.57870   1.65323    0.039
 6049.00    1.57393   1.65092    0.039
 6050.00    1.57510   1.64849    0.040
 6051.00    1.57334   1.64589    0.041
 6052.00    1.56691   1.64276    0.041
 6053.00    1.56626   1.64020    0.041
 6054.00    1.57367   1.63710    0.040
 6055.00    1.57724   1.63478    0.041
 6056.00    1.57608   1.63193    0.041
 6057.00    1.57595   1.63001    0.041
 6058.00    1.57693   1.62955    0.041
 6059.00    1.58202   1.62851    0.041
 6060.00    1.59101   1.62920    0.041
 6061.00    1.59170   1.62864    0.041
 6062.00    1.58541   1.62995    0.040
 6063.00    1.56764   1.63286    0.040
 6064.00    1.54137   1.63468    0.040
 6065.00    1.51853   1.63827    0.039
 6066.00    1.49794   1.64013    0.038
 6067.00    1.48969   1.64228    0.039
 6068.00    1.48848   1.64507    0.039
 6069.00    1.50505   1.64586    0.039
 6070.00    1.53043   1.64724    0.038
 6071.00    1.55459   1.64710    0.039
 6072.00    1.57823   1.64502    0.039
 6073.00    1.58532   1.64289    0.039
 6074.00    1.58633   1.63917    0.039
 6075.00    1.58351   1.63535    0.039
 6076.00    1.57949   1.63142    0.039
 6077.00    1.58039   1.62598    0.039
 6078.00    1.58256   1.62090    0.040
 6079.00    1.57048   1.61616    0.040
 6080.00    1.55539   1.61154    0.040
 6081.00    1.53662   1.60759    0.040
 6082.00    1.51722   1.60401    0.040
 6083.00    1.52092   1.60067    0.040
 6084.00    1.52753   1.59849    0.041
 6085.00    1.54928   1.59685    0.041
 6086.00    1.57235   1.59542    0.041
 6087.00    1.57529   1.59489    0.041
 6088.00    1.57719   1.59368    0.041
 6089.00    1.55705   1.59297    0.041
 6090.00    1.53677   1.59336    0.040
 6091.00    1.53654   1.59362    0.039
 6092.00    1.53694   1.59405    0.039
 6093.00    1.55054   1.59250    0.039
 6094.00    1.56318   1.59075    0.039
 6095.00    1.56404   1.59098    0.039
 6096.00    1.56618   1.59081    0.040
 6097.00    1.57888   1.59130    0.039
 6098.00    1.59052   1.58916    0.039
 6099.00    1.59556   1.58644    0.040
 6100.00    1.59593   1.58759    0.040
 6101.00    1.57352   1.58807    0.039
 6102.00    1.55419   1.59013    0.038
 6103.00    1.54702   1.59083    0.038
 6104.00    1.54195   1.58997    0.039
 6105.00    1.54380   1.59323    0.039
 6106.00    1.54680   1.59582    0.040
 6107.00    1.55298   1.59803    0.040
 6108.00    1.56127   1.59996    0.040
 6109.00    1.57461   1.59990    0.040
 6110.00    1.58622   1.60103    0.040
 6111.00    1.59428   1.60211    0.041
 6112.00    1.60116   1.60061    0.041
 6113.00    1.60591   1.59810    0.041
 6114.00    1.60496   1.59594    0.041
 6115.00    1.59510   1.59296    0.041
 6116.00    1.58390   1.59071    0.040
 6117.00    1.57084   1.58742    0.039
 6118.00    1.56403   1.58181    0.039
 6119.00    1.56478   1.57930    0.040
 6120.00    1.56033   1.57696    0.040
 6121.00    1.55030   1.57493    0.039
 6122.00    1.53868   1.57404    0.039
 6123.00    1.52554   1.57024    0.039
 6124.00    1.52678   1.56888    0.039
 6125.00    1.53994   1.56837    0.038
 6126.00    1.55195   1.56729    0.038
 6127.00    1.56312   1.56653    0.038
 6128.00    1.56352   1.56267    0.038
 6129.00    1.55700   1.56026    0.038
 6130.00    1.54454   1.55826    0.038
 6131.00    1.52875   1.55667    0.039
 6132.00    1.51445   1.55484    0.039
 6133.00    1.50087   1.55022    0.039
 6134.00    1.49138   1.54884    0.039
 6135.00    1.48361   1.54869    0.039
 6136.00    1.48695   1.55029    0.040
 6137.00    1.49429   1.55238    0.041
 6138.00    1.50773   1.55175    0.041
 6139.00    1.52304   1.55473    0.041
 6140.00    1.53122   1.55885    0.041
 6141.00    1.53760   1.56340    0.040
 6142.00    1.54331   1.56773    0.040
 6143.00    1.54889   1.56881    0.040
 6144.00    1.56743   1.57134    0.040
 6145.00    1.58807   1.57322    0.040
 6146.00    1.59136   1.57359    0.040
 6147.00    1.59255   1.57309    0.039
 6148.00    1.57749   1.56954    0.039
 6149.00    1.56108   1.56617    0.039
 6150.00    1.56011   1.56128    0.039
 6151.00    1.55987   1.55457    0.040
 6152.00    1.55070   1.54728    0.039
 6153.00    1.54148   1.53795    0.038
 6154.00    1.53635   1.52876    0.039
 6155.00    1.53148   1.51930    0.039
 6156.00    1.53190   1.50944    0.039
 6157.00    1.53068   1.49936    0.038
 6158.00    1.51070   1.48965    0.039
 6159.00    1.49131   1.48121    0.039
 6160.00    1.47666   1.47434    0.039
 6161.00    1.46329   1.46945    0.039
 6162.00    1.45760   1.46464    0.039
 6163.00    1.44884   1.46223    0.038
 6164.00    1.42544   1.46232    0.039
 6165.00    1.41058   1.46329    0.039
 6166.00    1.42876   1.46625    0.040
 6167.00    1.44836   1.46989    0.040
 6168.00    1.47253   1.47497    0.040
 6169.00    1.49146   1.48182    0.040
 6170.00    1.49607   1.48801    0.040
 6171.00    1.50392   1.49402    0.040
 6172.00    1.51939   1.50103    0.040
 6173.00    1.52675   1.50760    0.040
 6174.00    1.51773   1.51384    0.040
 6175.00    1.49986   1.51943    0.039
 6176.00    1.46640   1.52313    0.039
 6177.00    1.43654   1.52682    0.038
 6178.00    1.41226   1.52954    0.038
 6179.00    1.40218   1.53010    0.038
 6180.00    1.41134   1.53086    0.038
 6181.00    1.42989   1.53037    0.038
 6182.00    1.45965   1.52781    0.038
 6183.00    1.48045   1.52599    0.038
 6184.00    1.49184   1.52230    0.038
 6185.00    1.50001   1.51942    0.039
 6186.00    1.50520   1.51864    0.039
 6187.00    1.49424   1.51423    0.040
 6188.00    1.47007   1.51228    0.039
 6189.00    1.44940   1.51173    0.039
 6190.00    1.43123   1.51095    0.039
 6191.00    1.43228   1.51387    0.039
 6192.00    1.44545   1.51346    0.040
 6193.00    1.43817   1.51462    0.040
 6194.00    1.41959   1.51938    0.040
 6195.00    1.36812   1.52204    0.041
 6196.00    1.30087   1.52585   -2.000
 6197.00    1.32698   1.52825   -2.000
 6198.00    1.39181   1.53040   -2.000
 6199.00    1.49106   1.53470   -2.000
 6200.00    1.60252   1.53664   -2.000
 6201.00    1.65326   1.53670   -2.000
 6202.00    1.68584   1.53673   -2.000
 6203.00    1.63887   1.53596   -2.000
 6204.00    1.57213   1.53437   -2.000
 6205.00    1.54565   1.53184   -2.000
 6206.00    1.52728   1.52649   -2.000
 6207.00    1.54090   1.52073   -2.000
 6208.00    1.55958   1.51585    0.039
 6209.00    1.54268   1.50889    0.039
 6210.00    1.52162   1.50263    0.038
 6211.00    1.48959   1.49567    0.038
 6212.00    1.45669   1.48741    0.037
 6213.00    1.44118   1.48259    0.037
 6214.00    1.42644   1.47727    0.037
 6215.00    1.42702   1.47219    0.038
 6216.00    1.42820   1.46908    0.039
 6217.00    1.45033   1.46438    0.039
 6218.00    1.47209   1.46260    0.039
 6219.00    1.48698   1.46224    0.039
 6220.00    1.49933   1.46013    0.040
 6221.00    1.48368   1.45958    0.040
 6222.00    1.46919   1.45856    0.039
 6223.00    1.46372   1.45770    0.040
 6224.00    1.46192   1.45851    0.040
 6225.00    1.48158   1.45815    0.040
 6226.00    1.49457   1.45682    0.040
 6227.00    1.47660   1.45694    0.041
 6228.00    1.46112   1.45656    0.041
 6229.00    1.45504   1.45650    0.041
 6230.00    1.45229   1.45761    0.040
 6231.00    1.46011   1.45574    0.040
 6232.00    1.46780   1.45582    0.039
 6233.00    1.47519   1.45618    0.038
 6234.00    1.48088   1.45490    0.038
 6235.00    1.48268   1.45580    0.038
 6236.00    1.47974   1.45310    0.038
 6237.00    1.46736   1.45194    0.038
 6238.00    1.45017   1.45193    0.038
 6239.00    1.42465   1.44877    0.037
 6240.00    1.40863   1.44824    0.037
 6241.00    1.40707   1.44579    0.037
 6242.00    1.40945   1.44358    0.037
 6243.00    1.41711   1.44366    0.037
 6244.00    1.42594   1.44033    0.037
 6245.00    1.43616   1.43806    0.038
 6246.00    1.44830   1.43672    0.039
 6247.00    1.46243   1.43398    0.039
 6248.00    1.46983   1.43291    0.039
 6249.00    1.47106   1.43020    0.040
 6250.00    1.46465   1.42702    0.040
 6251.00    1.45207   1.42639    0.039
 6252.00    1.45129   1.42470    0.040
 6253.00    1.45887   1.42424    0.040
 6254.00    1.46058   1.42405    0.041
 6255.00    1.45864   1.42460    0.040
 6256.00    1.44817   1.42837    0.040
 6257.00    1.43306   1.43076    0.039
 6258.00    1.43161   1.43429    0.040
 6259.00    1.43660   1.43904    0.040
 6260.00    1.45935   1.44451    0.042
 6261.00    1.48935   1.45187    0.045
 6262.00    1.52818   1.45676    0.046
 6263.00    1.57009   1.46194    0.046
 6264.00    1.58913   1.46830    0.045
 6265.00    1.60147   1.47378    0.044
 6266.00    1.58381   1.47916    0.042
 6267.00    1.55886   1.48262    0.040
 6268.00    1.53229   1.48599    0.039
 6269.00    1.50539   1.49031    0.038
 6270.00    1.49312   1.49276    0.038
 6271.00    1.48309   1.49490    0.039
 6272.00    1.48487   1.49706    0.039
 6273.00    1.48798   1.49783    0.039
 6274.00    1.50362   1.50022    0.039
 6275.00    1.52021   1.50175    0.040
 6276.00    1.50951   1.50215    0.040
 6277.00    1.49773   1.50497    0.040
 6278.00    1.49051   1.50529    0.040
 6279.00    1.48350   1.50675    0.040
 6280.00    1.48352   1.50991    0.000
 6281.00    1.48407   1.50987    0.000
 6282.00    1.49352   1.51278    0.000
 6283.00    1.50237   1.51415    0.000
 6284.00    1.50488   1.51381    0.000
 6285.00    1.50803   1.51620    0.000
 6286.00    1.51595   1.51486    0.000
 6287.00    1.52382   1.51478    0.000
 6288.00    1.53132   1.51489    0.000
 6289.00    1.53368   1.51099    0.000
 6290.00    1.51276   1.50942    0.000
 6291.00    1.49382   1.50676    0.000
 6292.00    1.48223   1.50366    0.000
 6293.00    1.47112   1.50166    0.000
 6294.00    1.46148   1.49676    0.000
 6295.00    1.45506   1.49433    0.000
 6296.00    1.45713   1.49365    0.000
 6297.00    1.46031   1.49158    0.000
 6298.00    1.46599   1.49003    0.000
 6299.00    1.47137   1.48840    0.000
 6300.00    1.47619   1.48938    0.000
 6301.00    1.48264   1.49168    0.000
 6302.00    1.49188   1.49163    0.000
 6303.00    1.50360   1.49101    0.000
 6304.00    1.51903   1.49190    0.000
 6305.00    1.52573   1.49409    0.000
 6306.00    1.52096   1.49483    0.000
 6307.00    1.50501   1.49363    0.000
 6308.00    1.47608   1.49185    0.000
 6309.00    1.45817   1.49209    0.000
 6310.00    1.45154   1.49209    0.000
 6311.00    1.44933   1.48892    0.000
 6312.00    1.45110   1.48743    0.000
 6313.00    1.45524   1.48659    0.000
 6314.00    1.46127   1.48679    0.000
 6315.00    1.46294   1.48717    0.000
 6316.00    1.46155   1.48549    0.000
 6317.00    1.46696   1.48808    0.000
 6318.00    1.47653   1.49092    0.000
 6319.00    1.49154   1.49301    0.000
 6320.00    1.50946   1.49612    0.000
 6321.00    1.50624   1.49886    0.037
 6322.00    1.49319   1.50448    0.037
 6323.00    1.49567   1.50680    0.038
 6324.00    1.50436   1.50827    0.039
 6325.00    1.51448   1.51210    0.039
 6326.00    1.52508   1.51414    0.038
 6327.00    1.52158   1.51662    0.038
 6328.00    1.51403   1.51510    0.039
 6329.00    1.50825   1.51336    0.039
 6330.00    1.50289   1.51532    0.039
 6331.00    1.49596   1.51382    0.039
 6332.00    1.48873   1.51106    0.039
 6333.00    1.49516   1.50936    0.039
 6334.00    1.50362   1.50793    0.039
 6335.00    1.51292   1.50764    0.039
 6336.00    1.52230   1.50585    0.039
 6337.00    1.50541   1.50256    0.038
 6338.00    1.48665   1.50346    0.037
 6339.00    1.46882   1.50542    0.037
 6340.00    1.45103   1.50431    0.037
 6341.00    1.44797   1.50468    0.036
 6342.00    1.44499   1.50460    0.036
 6343.00    1.44319   1.50517    0.037
 6344.00    1.44236   1.50751    0.037
 6345.00    1.45714   1.50623    0.038
 6346.00    1.47144   1.50575    0.038
 6347.00    1.48084   1.50545    0.038
 6348.00    1.49064   1.50242    0.038
 6349.00    1.50324   1.50110    0.039
 6350.00    1.51542   1.49805    0.039
 6351.00    1.52526   1.49291    0.039
 6352.00    1.52995   1.48898    0.039
 6353.00    1.51186   1.48459    0.039
 6354.00    1.49454   1.48028    0.039
 6355.00    1.48005   1.47561    0.039
 6356.00    1.46947   1.47067    0.039
 6357.00    1.47081   1.46814    0.038
 6358.00    1.47294   1.46746    0.038
 6359.00    1.47710   1.46625    0.038
 6360.00    1.47604   1.46579    0.038
 6361.00    1.46336   1.46863    0.038
 6362.00    1.45774   1.47265    0.038
 6363.00    1.46575   1.47685    0.038
 6364.00    1.47311   1.48197    0.038
 6365.00    1.47935   1.48808    0.038
 6366.00    1.48752   1.49592    0.038
 6367.00    1.49853   1.50268    0.038
 6368.00    1.50951   1.50804    0.038
 6369.00    1.52045   1.51473    0.038
 6370.00    1.52643   1.52138    0.038
 6371.00    1.52674   1.52587    0.038
 6372.00    1.52647   1.52924    0.038
 6373.00    1.52561   1.53271    0.038
 6374.00    1.52688   1.53547    0.038
 6375.00    1.53004   1.53791    0.038
 6376.00    1.52843   1.53852    0.039
 6377.00    1.52309   1.53787    0.040
 6378.00    1.49797   1.53882    0.040
 6379.00    1.45923   1.53887    0.039
 6380.00    1.43963   1.53820    0.039
 6381.00    1.43160   1.53704    0.039
 6382.00    1.44571   1.53524    0.039
 6383.00    1.47150   1.53498    0.039
 6384.00    1.49530   1.53414    0.039
 6385.00    1.51819   1.53174    0.038
 6386.00    1.52799   1.52847    0.038
 6387.00    1.53263   1.52629    0.038
 6388.00    1.52282   1.52567    0.038
 6389.00    1.50817   1.52408    0.038
 6390.00    1.48154   1.52153    0.037
 6391.00    1.45155   1.51938    0.036
 6392.00    1.44392   1.51762    0.036
 6393.00    1.44150   1.51463    0.037
 6394.00    1.45806   1.51418    0.038
 6395.00    1.47815   1.51507    0.038
 6396.00    1.48731   1.51422    0.039
 6397.00    1.49489   1.51511    0.039
 6398.00    1.47785   1.51387    0.039
 6399.00    1.45824   1.51418    0.039
 6400.00    1.46949   1.51618    0.039
 6401.00    1.48282   1.51352    0.038
 6402.00    1.48084   1.51630    0.039
 6403.00    1.47836   1.51947    0.040
 6404.00    1.47127   1.51697    0.040
 6405.00    1.46471   1.51711    0.040
 6406.00    1.47446   1.51576    0.039
 6407.00    1.48406   1.51596    0.039
 6408.00    1.49132   1.51846    0.038
 6409.00    1.49688   1.51578    0.038
 6410.00    1.48609   1.51515    0.038
 6411.00    1.47611   1.51716    0.038
 6412.00    1.47177   1.51573    0.038
 6413.00    1.46707   1.51465    0.038
 6414.00    1.46046   1.51458    0.037
 6415.00    1.45260   1.51555    0.037
 6416.00    1.43938   1.51879    0.037
 6417.00    1.43007   1.51891    0.037
 6418.00    1.43463   1.51769    0.037
 6419.00    1.44135   1.51988    0.037
 6420.00    1.45449   1.52207    0.038
 6421.00    1.46080   1.52375    0.038
 6422.00    1.44973   1.52534    0.038
 6423.00    1.43962   1.52485    0.038
 6424.00    1.43160   1.52555    0.039
 6425.00    1.42978   1.52835    0.039
 6426.00    1.43971   1.52845    0.039
 6427.00    1.44923   1.52824    0.039
 6428.00    1.45808   1.52904    0.040
 6429.00    1.46132   1.52921    0.040
 6430.00    1.45642   1.53150    0.039
 6431.00    1.46233   1.53072    0.039
 6432.00    1.48206   1.52819    0.039
 6433.00    1.49368   1.53179    0.038
 6434.00    1.49614   1.53390    0.038
 6435.00    1.49326   1.53421    0.038
 6436.00    1.48505   1.53511    0.037
 6437.00    1.47991   1.53325    0.037
 6438.00    1.47746   1.53585    0.037
 6439.00    1.48629   1.53814    0.037
 6440.00    1.50384   1.53572    0.037
 6441.00    1.50512   1.53697    0.037
 6442.00    1.49534   1.53547    0.037
 6443.00    1.47644   1.53203    0.037
 6444.00    1.45211   1.53275    0.037
 6445.00    1.44618   1.53005    0.037
 6446.00    1.44980   1.52876    0.038
 6447.00    1.45083   1.52811    0.038
 6448.00    1.45070   1.52337    0.039
 6449.00    1.44367   1.52354    0.040
 6450.00    1.43397   1.52338    0.040
 6451.00    1.42431   1.52130    0.039
 6452.00    1.41466   1.52315    0.039
 6453.00    1.40639   1.52369    0.038
 6454.00    1.39850   1.52483    0.038
 6455.00    1.39076   1.52487    0.038
 6456.00    1.38305   1.52321    0.038
 6457.00    1.36771   1.52669    0.038
 6458.00    1.35100   1.52967    0.037
 6459.00    1.35001   1.53053    0.037
 6460.00    1.35121   1.53111    0.036
 6461.00    1.36837   1.53092    0.037
 6462.00    1.38713   1.53299    0.037
 6463.00    1.40992   1.53409    0.036
 6464.00    1.43297   1.53319    0.036
 6465.00    1.45273   1.53484    0.037
 6466.00    1.47235   1.53709    0.037
 6467.00    1.47542   1.53697    0.038
 6468.00    1.47800   1.53586    0.038
 6469.00    1.46702   1.53514    0.038
 6470.00    1.45747   1.53599    0.038
 6471.00    1.46821   1.53657    0.039
 6472.00    1.47997   1.53469    0.039
 6473.00    1.50123   1.53310    0.040
 6474.00    1.51725   1.53240    0.040
 6475.00    1.49792   1.52998    0.040
 6476.00    1.47894   1.52689    0.040
 6477.00    1.46183   1.52453    0.039
 6478.00    1.44706   1.52240    0.039
 6479.00    1.44216   1.51866    0.039
 6480.00    1.43688   1.51361    0.038
 6481.00    1.43024   1.50920    0.038
 6482.00    1.42757   1.50465    0.037
 6483.00    1.43653   1.49868    0.037
 6484.00    1.44657   1.49103    0.037
 6485.00    1.45928   1.48477    0.037
 6486.00    1.46972   1.47866    0.037
 6487.00    1.47527   1.46866    0.036
 6488.00    1.47658   1.45976    0.036
 6489.00    1.47000   1.45233    0.037
 6490.00    1.46158   1.44567    0.037
 6491.00    1.45018   1.44078    0.037
 6492.00    1.43765   1.43251    0.037
 6493.00    1.42353   1.42866    0.037
 6494.00    1.41029   1.42920    0.038
 6495.00    1.39818   1.42690    0.038
 6496.00    1.39324   1.42918    0.038
 6497.00    1.39628   1.43247    0.038
 6498.00    1.40446   1.43714    0.038
 6499.00    1.41765   1.44607    0.039
 6500.00    1.43209   1.45115    0.039
 6501.00    1.44759   1.45817    0.039
 6502.00    1.46746   1.46768    0.039
 6503.00    1.49065   1.47487    0.039
 6504.00    1.50307   1.48339    0.038
 6505.00    1.50827   1.48957    0.038
 6506.00    1.50316   1.49456    0.037
 6507.00    1.49201   1.50086    0.037
 6508.00    1.47982   1.50423    0.037
 6509.00    1.46710   1.50685    0.036
 6510.00    1.45617   1.50977    0.036
 6511.00    1.44603   1.51088    0.036
 6512.00    1.44729   1.51238    0.037
 6513.00    1.45289   1.51342    0.037
 6514.00    1.47048   1.51319    0.038
 6515.00    1.49193   1.51449    0.038
 6516.00    1.50411   1.51432    0.038
 6517.00    1.51378   1.51360    0.038
 6518.00    1.52089   1.51582    0.039
 6519.00    1.52744   1.51592    0.039
 6520.00    1.53604   1.51557    0.039
 6521.00    1.54501   1.51713    0.039
 6522.00    1.53247   1.51737    0.039
 6523.00    1.51703   1.51874    0.039
 6524.00    1.49779   1.51922    0.038
 6525.00    1.47818   1.51832    0.038
 6526.00    1.47398   1.52017    0.038
 6527.00    1.47068   1.52094    0.038
 6528.00    1.46106   1.52074    0.000
 6529.00    1.45137   1.52197    0.000
 6530.00    1.45582   1.52189    0.000
 6531.00    1.46113   1.52177    0.000
 6532.00    1.48798   1.52240    0.000
 6533.00    1.51345   1.52196    0.000
 6534.00    1.52031   1.52167    0.000
 6535.00    1.52515   1.52089    0.000
 6536.00    1.51200   1.51868    0.000
 6537.00    1.50140   1.51793    0.000
 6538.00    1.50754   1.51601    0.000
 6539.00    1.51389   1.51119    0.000
 6540.00    1.52127   1.50837    0.000
 6541.00    1.52483   1.50480    0.000
 6542.00    1.51264   1.50002    0.000
 6543.00    1.50234   1.49557    0.000
 6544.00    1.49847   1.48759    0.000
 6545.00    1.49917   1.48166    0.000
 6546.00    1.51304   1.47698    0.000
 6547.00    1.52339   1.46754    0.000
 6548.00    1.52506   1.45936    0.000
 6549.00    1.52137   1.45145    0.000
 6550.00    1.50629   1.44237    0.000
 6551.00    1.49725   1.43450    0.000
 6552.00    1.49933   1.42195    0.000
 6553.00    1.49903   1.40980    0.000
 6554.00    1.49491   1.40358    0.000
 6555.00    1.48436   1.39231    0.000
 6556.00    1.46474   1.37992    0.000
 6557.00    1.45493   1.37440    0.000
 6558.00    1.45732   1.36824    0.000
 6559.00    1.45373   1.36347    0.000
 6560.00    1.44359   1.35854    0.000
 6561.00    1.42893   1.35293    0.000
 6562.00    1.40992   1.35760    0.000
 6563.00    1.40677   1.36116    0.000
 6564.00    1.41715   1.36062    0.000
 6565.00    1.41654   1.36901    0.000
 6566.00    1.40769   1.37833    0.000
 6567.00    1.40676   1.38456    0.000
 6568.00    1.41106   1.39228    0.000
 6569.00    1.41514   1.40062    0.000
 6570.00    1.41909   1.40989    0.000
 6571.00    1.43050   1.41862    0.000
 6572.00    1.44566   1.42638    0.000
 6573.00    1.45443   1.43363    0.000
 6574.00    1.46040   1.44123    0.000
 6575.00    1.47839   1.44797    0.000
 6576.00    1.50088   1.45241    0.000
 6577.00    1.53683   1.45847    0.000
 6578.00    1.57704   1.46349    0.000
 6579.00    1.60212   1.46524    0.000
 6580.00    1.62320   1.46923    0.000
 6581.00    1.61642   1.47226    0.000
 6582.00    1.60361   1.47254    0.000
 6583.00    1.57842   1.47368    0.000
 6584.00    1.55111   1.47400    0.000
 6585.00    1.54191   1.47408    0.000
 6586.00    1.53506   1.47359    0.000
 6587.00    1.51272   1.47150    0.000
 6588.00    1.48896   1.47075    0.000
 6589.00    1.46853   1.47052    0.000
 6590.00    1.44828   1.46880    0.000
 6591.00    1.43135   1.46625    0.000
 6592.00    1.41466   1.46583    0.000
 6593.00    1.41453   1.46692    0.000
 6594.00    1.41565   1.46562    0.000
 6595.00    1.44562   1.46525    0.000
 6596.00    1.47478   1.46663    0.000
 6597.00    1.49371   1.46709    0.000
 6598.00    1.51102   1.46796    0.000
 6599.00    1.51450   1.46779    0.000
 6600.00    1.51322   1.46830    0.000
 6601.00    1.48163   1.47072    0.000
 6602.00    1.45377   1.47089    0.000
 6603.00    1.44452   1.47086    0.000
 6604.00    1.43974   1.47229    0.000
 6605.00    1.45304   1.47379    0.000
 6606.00    1.46509   1.47480    0.000
 6607.00    1.47296   1.47477    0.000
 6608.00    1.47902   1.47685    0.000
 6609.00    1.47993   1.47992    0.039
 6610.00    1.47513   1.48097    0.039
 6611.00    1.45651   1.48235    0.039
 6612.00    1.44745   1.48436    0.039
 6613.00    1.45832   1.48697    0.039
 6614.00    1.46857   1.48802    0.039
 6615.00    1.47769   1.48705    0.039
 6616.00    1.47999   1.48871    0.039
 6617.00    1.47149   1.48940    0.039
 6618.00    1.47025   1.48748    0.039
 6619.00    1.47913   1.48672    0.039
 6620.00    1.48703   1.48487    0.039
 6621.00    1.49374   1.48291    0.040
 6622.00    1.49650   1.48048    0.040
 6623.00    1.49498   1.47584    0.040
 6624.00    1.49045   1.47373    0.039
 6625.00    1.48305   1.47143    0.038
 6626.00    1.47801   1.46693    0.037
 6627.00    1.47495   1.46493    0.037
 6628.00    1.47658   1.46286    0.037
 6629.00    1.48166   1.45988    0.037
 6630.00    1.47978   1.45820    0.038
 6631.00    1.47337   1.45646    0.038
 6632.00    1.45875   1.45524    0.038
 6633.00    1.43946   1.45454    0.038
 6634.00    1.42190   1.45386    0.038
 6635.00    1.40520   1.45428    0.038
 6636.00    1.41138   1.45496    0.039
 6637.00    1.42736   1.45497    0.039
 6638.00    1.43184   1.45505    0.039
 6639.00    1.43211   1.45664    0.039
 6640.00    1.43713   1.45782    0.038
 6641.00    1.44364   1.45688    0.038
 6642.00    1.44132   1.45775    0.038
 6643.00    1.43672   1.45992    0.037
 6644.00    1.44264   1.45977    0.037
 6645.00    1.45078   1.45966    0.038
 6646.00    1.46683   1.46038    0.038
 6647.00    1.48420   1.46085    0.037
 6648.00    1.48571   1.46108    0.038
 6649.00    1.48522   1.45990    0.038
 6650.00    1.47309   1.45903    0.038
 6651.00    1.45995   1.45922    0.038
 6652.00    1.44471   1.45772    0.038
 6653.00    1.42936   1.45521    0.039
 6654.00    1.42932   1.45402    0.039
 6655.00    1.42974   1.45258    0.039
 6656.00    1.44266   1.45028    0.039
 6657.00    1.45463   1.44834    0.039
 6658.00    1.44667   1.44591    0.039
 6659.00    1.43769   1.44424    0.039
 6660.00    1.41631   1.44362    0.039
 6661.00    1.39663   1.44089    0.039
 6662.00    1.39104   1.43958    0.038
 6663.00    1.38656   1.44065    0.037
 6664.00    1.38902   1.43916    0.038
 6665.00    1.38967   1.43851    0.038
 6666.00    1.38158   1.44009    0.038
 6667.00    1.37799   1.43965    0.037
 6668.00    1.39218   1.43896    0.037
 6669.00    1.40678   1.44008    0.037
 6670.00    1.42272   1.44051    0.037
 6671.00    1.43809   1.44038    0.037
 6672.00    1.45186   1.44054    0.038
 6673.00    1.46190   1.44003    0.038
 6674.00    1.46308   1.44079    0.039
 6675.00    1.46191   1.44092    0.039
 6676.00    1.45590   1.43887    0.039
 6677.00    1.44775   1.44031    0.040
 6678.00    1.43580   1.44195    0.040
 6679.00    1.42976   1.44034    0.039
 6680.00    1.43293   1.44156    0.039
 6681.00    1.43599   1.44374    0.039
 6682.00    1.43887   1.44382    0.039
 6683.00    1.43880   1.44431    0.039
 6684.00    1.43515   1.44541    0.038
 6685.00    1.43317   1.44606    0.038
 6686.00    1.43299   1.44567    0.038
 6687.00    1.42854   1.44562    0.038
 6688.00    1.42010   1.44557    0.037
 6689.00    1.40954   1.44504    0.037
 6690.00    1.39723   1.44482    0.037
 6691.00    1.39592   1.44313    0.037
 6692.00    1.40263   1.44229    0.038
 6693.00    1.40933   1.44173    0.038
 6694.00    1.41603   1.43851    0.038
 6695.00    1.41036   1.43792    0.038
 6696.00    1.39776   1.43775    0.000
 6697.00    1.39069   1.43471    0.000
 6698.00    1.38631   1.43452    0.000
 6699.00    1.38893   1.43399    0.000
 6700.00    1.39449   1.43147    0.000
 6701.00    1.40331   1.43116    0.000
 6702.00    1.41329   1.42936    0.000
 6703.00    1.41107   1.42708    0.000
 6704.00    1.40513   1.42650    0.000
 6705.00    1.40124   1.42347    0.000
 6706.00    1.39787   1.42121    0.000
 6707.00    1.40744   1.42002    0.000
 6708.00    1.41967   1.41624    0.000
 6709.00    1.43314   1.41453    0.000
 6710.00    1.44681   1.41332    0.000
 6711.00    1.45514   1.40981    0.000
 6712.00    1.46283   1.40813    0.000
 6713.00    1.46954   1.40706    0.000
 6714.00    1.47616   1.40605    0.000
 6715.00    1.47416   1.40540    0.000
 6716.00    1.47176   1.40453    0.000
 6717.00    1.45019   1.40636    0.000
 6718.00    1.42861   1.40775    0.000
 6719.00    1.42151   1.40787    0.000
 6720.00    1.41467   1.41032    0.000
 6721.00    1.41279   1.41276    0.000
 6722.00    1.41175   1.41475    0.000
 6723.00    1.42033   1.41653    0.000
 6724.00    1.43098   1.41772    0.000
 6725.00    1.45824   1.42030    0.000
 6726.00    1.48266   1.42196    0.000
 6727.00    1.49003   1.42201    0.000
 6728.00    1.49320   1.42339    0.000
 6729.00    1.47650   1.42410    0.000
 6730.00    1.46229   1.42352    0.000
 6731.00    1.45770   1.42338    0.000
 6732.00    1.45235   1.42241    0.000
 6733.00    1.44449   1.42107    0.000
 6734.00    1.43293   1.42028    0.000
 6735.00    1.41128   1.41842    0.000
 6736.00    1.39398   1.41638    0.000
 6737.00    1.38683   1.41469    0.000
 6738.00    1.38741   1.41294    0.000
 6739.00    1.40362   1.41176    0.000
 6740.00    1.41678   1.40936    0.000
 6741.00    1.42458   1.40770    0.000
 6742.00    1.42198   1.40755    0.000
 6743.00    1.40337   1.40601    0.000
 6744.00    1.39186   1.40534    0.000
 6745.00    1.38994   1.40532    0.000
 6746.00    1.38395   1.40540    0.000
 6747.00    1.37311   1.40665    0.000
 6748.00    1.37449   1.40630    0.000
 6749.00    1.38871   1.40808    0.000
 6750.00    1.38960   1.41118    0.000
 6751.00    1.37812   1.41093    0.000
 6752.00    1.37680   1.41382    0.000
 6753.00    1.38375   1.41719    0.040
 6754.00    1.38847   1.41751    0.041
 6755.00    1.39157   1.42061    0.042
 6756.00    1.37527   1.42304    0.042
 6757.00    1.34674   1.42333    0.042
 6758.00    1.36097   1.42539    0.042
 6759.00    1.39877   1.42655    0.042
 6760.00    1.45870   1.42646    0.044
 6761.00    1.52925   1.42724    0.046
 6762.00    1.57609   1.42728    0.048
 6763.00    1.61313   1.42700    0.048
 6764.00    1.62852   1.42725    0.048
 6765.00    1.63625   1.42667    0.049
 6766.00    1.64746   1.42635    0.048
 6767.00    1.65972   1.42721    0.047
 6768.00    1.64628   1.42713    0.046
 6769.00    1.62648   1.42671    0.045
 6770.00    1.57819   1.42754    0.044
 6771.00    1.52417   1.42828    0.043
 6772.00    1.51272   1.42828    0.042
 6773.00    1.50796   1.42820    0.041
 6774.00    1.49281   1.42868    0.040
 6775.00    1.47646   1.42860    0.040
 6776.00    1.43564   1.42731    0.040
 6777.00    1.39288   1.42693    0.040
 6778.00    1.43409   1.42626    0.041
 6779.00    1.47895   1.42426    0.041
 6780.00    1.48638   1.42297    0.043
 6781.00    1.49282   1.42140    0.044
 6782.00    1.47201   1.41930    0.043
 6783.00    1.45259   1.41837    0.043
 6784.00    1.45819   1.41699    0.043
 6785.00    1.46285   1.41538    0.043
 6786.00    1.45714   1.41554    0.043
 6787.00    1.45362   1.41511    0.043
 6788.00    1.46686   1.41385    0.043
 6789.00    1.48202   1.41488    0.043
 6790.00    1.50835   1.41561    0.044
 6791.00    1.52859   1.41428    0.044
 6792.00    1.52071   1.41564    0.043
 6793.00    1.51330   1.41699    0.043
 6794.00    1.50763   1.41599    0.042
 6795.00    1.49624   1.41779    0.042
 6796.00    1.46675   1.41881    0.041
 6797.00    1.45101   1.41819    0.040
 6798.00    1.47207   1.42010    0.041
 6799.00    1.49163   1.42002    0.041
 6800.00    1.50775   1.42023    0.042
 6801.00    1.51285   1.42167    0.042
 6802.00    1.49606   1.41995    0.042
 6803.00    1.48300   1.42121    0.042
 6804.00    1.47641   1.42238    0.042
 6805.00    1.46606   1.41981    0.042
 6806.00    1.45000   1.42160    0.043
 6807.00    1.43645   1.42230    0.043
 6808.00    1.42624   1.42020    0.042
 6809.00    1.42840   1.42205    0.042
 6810.00    1.44506   1.42229    0.042
 6811.00    1.44760   1.42185    0.042
 6812.00    1.43551   1.42337    0.042
 6813.00    1.43181   1.42283    0.042
 6814.00    1.43576   1.42401    0.043
 6815.00    1.43746   1.42549    0.043
 6816.00    1.43735   1.42495    0.042
 6817.00    1.43655   1.42652    0.041
 6818.00    1.43527   1.42747    0.041
 6819.00    1.45303   1.42736    0.041
 6820.00    1.48263   1.42859    0.041
 6821.00    1.49088   1.42895    0.041
 6822.00    1.48756   1.42914    0.042
 6823.00    1.48284   1.42925    0.042
 6824.00    1.47746   1.42896    0.041
 6825.00    1.46025   1.42902    0.042
 6826.00    1.43823   1.42764    0.042
 6827.00    1.44890   1.42645    0.043
 6828.00    1.47093   1.42593    0.043
 6829.00    1.49489   1.42407    0.043
 6830.00    1.51942   1.42234    0.044
 6831.00    1.51953   1.42052    0.043
 6832.00    1.51372   1.41856    0.043
 6833.00    1.51238   1.41698    0.042
 6834.00    1.51191   1.41424    0.042
 6835.00    1.50046   1.41213    0.042
 6836.00    1.48733   1.41082    0.041
 6837.00    1.47405   1.40843    0.042
 6838.00    1.46074   1.40682    0.043
 6839.00    1.45724   1.40572    0.043
 6840.00    1.45446   1.40470    0.042
 6841.00    1.42795   1.40417    0.042
 6842.00    1.40049   1.40339    0.042
 6843.00    1.38729   1.40389    0.041
 6844.00    1.37582   1.40387    0.041
 6845.00    1.42933   1.40298    0.042
 6846.00    1.47928   1.40388    0.042
 6847.00    1.46913   1.40333    0.042
 6848.00    1.46021   1.40216    0.042
 6849.00    1.46408   1.40230    0.042
 6850.00    1.46750   1.40067    0.042
 6851.00    1.46762   1.40003    0.042
 6852.00    1.46856   1.39951    0.042
 6853.00    1.47411   1.39632    0.042
 6854.00    1.47468   1.39599    0.041
 6855.00    1.45273   1.39576    0.041
 6856.00    1.42751   1.39248    0.041
 6857.00    1.39016   1.39253    0.040
 6858.00    1.36104   1.39288    0.040
 6859.00    1.35744   1.39030    0.040
 6860.00    1.35947   1.38991    0.040
 6861.00    1.37631   1.39099    0.040
 6862.00    1.39174   1.39049    0.040
 6863.00    1.40399   1.38971    0.041
 6864.00    1.41263   1.39047    0.041
 6865.00    1.41423   1.39141    0.042
 6866.00    1.41639   1.39055    0.042
 6867.00    1.41952   1.39076    0.043
 6868.00    1.41209   1.39283    0.043
 6869.00    1.38887   1.39291    0.043
 6870.00    1.37303   1.39240    0.043
 6871.00    1.36686   1.39434    0.042
 6872.00    1.37048   1.39600    0.042
 6873.00    1.38544   1.39584    0.041
 6874.00    1.40572   1.39682    0.041
 6875.00    1.43142   1.39914    0.041
 6876.00    1.44034   1.40042    0.041
 6877.00    1.43415   1.40129    0.043
 6878.00    1.44944   1.40315    0.045
 6879.00    1.48175   1.40525    0.048
 6880.00    1.50443   1.40673    0.049
 6881.00    1.52039   1.40788    0.049
 6882.00    1.48994   1.41078    0.046
 6883.00    1.43108   1.41385    0.043
 6884.00    1.40136   1.41424    0.042
 6885.00    1.38720   1.41671    0.041
 6886.00    1.39501   1.42098    0.042
 6887.00    1.41301   1.42139    0.042
 6888.00    1.42470   1.42285    0.043
 6889.00    1.43387   1.42697    0.043
 6890.00    1.44920   1.42756    0.043
 6891.00    1.46662   1.42821    0.043
 6892.00    1.47378   1.43121    0.043
 6893.00    1.47801   1.43196    0.043
 6894.00    1.47186   1.43242    0.043
 6895.00    1.46327   1.43379    0.043
 6896.00    1.44570   1.43486    0.042
 6897.00    1.42643   1.43592    0.041
 6898.00    1.43391   1.43556    0.040
 6899.00    1.44534   1.43619    0.040
 6900.00    1.42214   1.43786    0.040
 6901.00    1.39520   1.43681    0.040
 6902.00    1.38541   1.43687    0.040
 6903.00    1.37684   1.43762    0.041
 6904.00    1.39418   1.43632    0.040
 6905.00    1.41245   1.43664    0.040
 6906.00    1.42464   1.43573    0.041
 6907.00    1.43629   1.43413    0.042
 6908.00    1.42970   1.43466    0.042
 6909.00    1.42289   1.43232    0.042
 6910.00    1.41269   1.43075    0.042
 6911.00    1.40412   1.43130    0.042
 6912.00    1.41190   1.42810    0.043
 6913.00    1.41526   1.42696    0.043
 6914.00    1.38689   1.42767    0.042
 6915.00    1.36366   1.42469    0.042
 6916.00    1.36877   1.42390    0.041
 6917.00    1.37502   1.42417    0.041
 6918.00    1.38629   1.42228    0.041
 6919.00    1.39454   1.42189    0.040
 6920.00    1.39187   1.42152    0.040
 6921.00    1.38928   1.42059    0.040
 6922.00    1.38695   1.42033    0.040
 6923.00    1.38495   1.41948    0.040
 6924.00    1.38380   1.41925    0.041
 6925.00    1.37859   1.41962    0.041
 6926.00    1.36436   1.41927    0.042
 6927.00    1.36828   1.41951    0.042
 6928.00    1.40716   1.41975    0.043
 6929.00    1.42360   1.41986    0.043
 6930.00    1.40230   1.42084    0.043
 6931.00    1.39501   1.42039    0.043
 6932.00    1.40835   1.42034    0.043
 6933.00    1.42318   1.42213    0.043
 6934.00    1.43996   1.42143    0.043
 6935.00    1.44630   1.42073    0.043
 6936.00    1.44073   1.42214    0.043
 6937.00    1.43249   1.42116    0.043
 6938.00    1.42158   1.42029    0.043
 6939.00    1.41840   1.42125    0.042
 6940.00    1.42208   1.41957    0.042
 6941.00    1.41179   1.41870    0.042
 6942.00    1.39059   1.41957    0.041
 6943.00    1.38396   1.41712    0.042
 6944.00    1.38735   1.41675    0.042
 6945.00    1.38029   1.41848    0.043
 6946.00    1.36694   1.41613    0.043
 6947.00    1.35218   1.41636    0.043
 6948.00    1.33667   1.41886    0.043
 6949.00    1.34471   1.41706    0.043
 6950.00    1.36348   1.41776    0.044
 6951.00    1.37104   1.42089    0.044
 6952.00    1.37420   1.42029    0.044
 6953.00    1.37428   1.42152    0.044
 6954.00    1.37334   1.42493    0.044
 6955.00    1.38845   1.42533    0.043
 6956.00    1.40808   1.42694    0.043
 6957.00    1.40074   1.42991    0.042
 6958.00    1.38715   1.43029    0.042
 6959.00    1.41618   1.43209    0.042
 6960.00    1.45311   1.43413    0.042
 6961.00    1.43402   1.43361    0.042
 6962.00    1.40690   1.43507    0.042
 6963.00    1.39453   1.43577    0.042
 6964.00    1.38369   1.43379    0.043
 6965.00    1.40366   1.43424    0.043
 6966.00    1.42570   1.43364    0.044
 6967.00    1.40921   1.43072    0.044
 6968.00    1.39148   1.42992    0.044
 6969.00    1.37484   1.42782    0.044
 6970.00    1.35895   1.42437    0.045
 6971.00    1.36599   1.42329    0.044
 6972.00    1.37422   1.42153    0.044
 6973.00    1.39999   1.41808    0.044
 6974.00    1.42005   1.41678    0.044
 6975.00    1.38529   1.41712    0.044
 6976.00    1.35638   1.41498    0.044
 6977.00    1.36826   1.41383    0.043
 6978.00    1.38084   1.41665    0.043
 6979.00    1.39711   1.41737    0.043
 6980.00    1.40162   1.41752    0.042
 6981.00    1.35539   1.42089    0.042
 6982.00    1.32746   1.42305    0.041
 6983.00    1.36449   1.42449    0.042
 6984.00    1.39785   1.42710    0.043
 6985.00    1.42026   1.42914    0.043
 6986.00    1.43201   1.43089    0.044
 6987.00    1.41668   1.43210    0.044
 6988.00    1.39727   1.43308    0.044
 6989.00    1.36896   1.43414    0.044
 6990.00    1.36135   1.43435    0.045
 6991.00    1.39300   1.43428    0.045
 6992.00    1.40210   1.43364    0.045
 6993.00    1.37385   1.43286    0.045
 6994.00    1.36922   1.43210    0.045
 6995.00    1.39887   1.43032    0.044
 6996.00    1.41357   1.42920    0.044
 6997.00    1.40918   1.42786    0.044
 6998.00    1.40090   1.42530    0.044
 6999.00    1.38827   1.42408    0.043
 7000.00    1.38277   1.42310    0.043
 7001.00    1.38434   1.42118    0.043
 7002.00    1.39008   1.41959    0.043
 7003.00    1.39948   1.41823    0.044
 7004.00    1.40017   1.41732    0.045
 7005.00    1.39414   1.41604    0.046
 7006.00    1.38879   1.41443    0.047
 7007.00    1.38389   1.41428    0.050
 7008.00    1.36483   1.41331    0.050
 7009.00    1.33736   1.41159    0.049
 7010.00    1.33682   1.41185    0.049
 7011.00    1.35023   1.41091    0.050
 7012.00    1.33675   1.40982    0.050
 7013.00    1.31120   1.41084    0.050
 7014.00    1.31156   1.40934    0.050
 7015.00    1.32191   1.40841    0.049
 7016.00    1.33140   1.41089    0.049
 7017.00    1.34061   1.41072    0.049
 7018.00    1.34678   1.41013    0.049
 7019.00    1.35212   1.41230    0.049
 7020.00    1.36940   1.41329    0.049
 7021.00    1.38937   1.41351    0.049
 7022.00    1.40277   1.41475    0.049
 7023.00    1.41498   1.41653    0.050
 7024.00    1.42465   1.41817    0.050
 7025.00    1.43397   1.41942    0.049
 7026.00    1.39302   1.42155    0.049
 7027.00    1.34709   1.42337    0.049
 7028.00    1.35812   1.42510    0.050
 7029.00    1.37273   1.42804    0.051
 7030.00    1.35740   1.42933    0.051
 7031.00    1.34126   1.43154    0.052
 7032.00    1.33558   1.43561    0.051
 7033.00    1.33099   1.43627    0.051
 7034.00    1.35656   1.43882    0.050
 7035.00    1.38047   1.44414    0.050
 7036.00    1.38092   1.44403    0.050
 7037.00    1.38167   1.44552    0.050
 7038.00    1.38509   1.45126    0.050
 7039.00    1.38317   1.45159    0.051
 7040.00    1.34529   1.45166    0.050
 7041.00    1.32045   1.45525    0.049
 7042.00    1.36380   1.45449    0.049
 7043.00    1.40083   1.45260    0.049
 7044.00    1.41130   1.45293    0.049
 7045.00    1.41618   1.45022    0.049
 7046.00    1.40164   1.44679    0.050
 7047.00    1.39412   1.44378    0.051
 7048.00    1.40714   1.43833    0.052
 7049.00    1.42290   1.43340    0.053
 7050.00    1.44554   1.42798   -2.000
 7051.00    1.45039   1.42063   -2.000
 7052.00    1.41701   1.41465   -2.000
 7053.00    1.39236   1.40882   -2.000
 7054.00    1.38402   1.40207   -2.000
 7055.00    1.40546   1.39594   -2.000
 7056.00    1.47546   1.39111   -2.000
 7057.00    1.50235   1.38605   -2.000
 7058.00    1.46756   1.38003   -2.000
 7059.00    1.45508   1.37706   -2.000
 7060.00    1.47066   1.37480   -2.000
 7061.00    1.45802   1.37010   -2.000
 7062.00    1.41410   1.36920   -2.000
 7063.00    1.43122   1.36914   -2.000
 7064.00    1.50804   1.36612   -2.000
 7065.00    1.54178   1.36691   -2.000
 7066.00    1.53835   1.36798   -2.000
 7067.00    1.53153   1.36641   -2.000
 7068.00    1.52213   1.36843   -2.000
 7069.00    1.52492   1.37038   -2.000
 7070.00    1.53585   1.36949   -2.000
 7071.00    1.57013   1.37050   -2.000
 7072.00    1.61806   1.37169   -2.000
 7073.00    1.62480   1.37064   -2.000
 7074.00    1.61053   1.36948   -2.000
 7075.00    1.55788   1.36884   -2.000
 7076.00    1.48828   1.36659   -2.000
 7077.00    1.49964   1.36278   -2.000
 7078.00    1.54171   1.36030   -2.000
 7079.00    1.53264   1.35616   -2.000
 7080.00    1.50710   1.35019   -2.000
 7081.00    1.52530   1.34681   -2.000
 7082.00    1.55528   1.34080   -2.000
 7083.00    1.53762   1.33377   -2.000
 7084.00    1.50945   1.33129   -2.000
 7085.00    1.51371   1.32554   -2.000
 7086.00    1.52367   1.31931   -2.000
 7087.00    1.52171   1.31786   -2.000
 7088.00    1.51815   1.31338   -2.000
 7089.00    1.48301   1.30951   -2.000
 7090.00    1.44486   1.30948   -2.000
 7091.00    1.44095   1.30708   -2.000
 7092.00    1.43905   1.30571   -2.000
 7093.00    1.44346   1.30648   -2.000
 7094.00    1.44790   1.30632   -2.000
 7095.00    1.43505   1.30662   -2.000
 7096.00    1.42120   1.30754   -2.000
 7097.00    1.38268   1.30903   -2.000
 7098.00    1.34586   1.30994   -2.000
 7099.00    1.33176   1.31062   -2.000
 7100.00    1.32104   1.31231   -2.000
 7101.00    1.34023   1.31298   -2.000
 7102.00    1.35596   1.31330   -2.000
 7103.00    1.34907   1.31487   -2.000
 7104.00    1.34028   1.31536   -2.000
 7105.00    1.32179   1.31502   -2.000
 7106.00    1.30985   1.31556   -2.000
 7107.00    1.32485   1.31614   -2.000
 7108.00    1.33304   1.31599   -2.000
 7109.00    1.31803   1.31549   -2.000
 7110.00    1.30657   1.31556   -2.000
 7111.00    1.30528   1.31565   -2.000
 7112.00    1.30616   1.31495   -2.000
 7113.00    1.31237   1.31457   -2.000
 7114.00    1.32359   1.31397   -2.000
 7115.00    1.34540   1.31284   -2.000
 7116.00    1.34854   1.31225   -2.000
 7117.00    1.31734   1.31045   -2.000
 7118.00    1.30922   1.30884   -2.000
 7119.00    1.33818   1.30823   -2.000
 7120.00    1.35909   1.30533   -2.000
 7121.00    1.36864   1.30356   -2.000
 7122.00    1.37798   1.30284   -2.000
 7123.00    1.38704   1.30003   -2.000
 7124.00    1.40599   1.29878   -2.000
 7125.00    1.43574   1.29735   -2.000
 7126.00    1.42112   1.29567   -2.000
 7127.00    1.36370   1.29637   -2.000
 7128.00    1.38494   1.29456   -2.000
 7129.00    1.47305   1.29378   -2.000
 7130.00    1.48670   1.29642   -2.000
 7131.00    1.44460   1.29499   -2.000
 7132.00    1.44387   1.29558   -2.000
 7133.00    1.47036   1.29938   -2.000
 7134.00    1.42381   1.29751   -2.000
 7135.00    1.33519   1.29870   -2.000
 7136.00    1.31222   1.30321   -2.000
 7137.00    1.32220   1.30075   -2.000
 7138.00    1.38073   1.30152   -2.000
 7139.00    1.46035   1.30619   -2.000
 7140.00    1.44372   1.30363   -2.000
 7141.00    1.39123   1.30405   -2.000
 7142.00    1.37089   1.30816   -2.000
 7143.00    1.36071   1.30549   -2.000
 7144.00    1.34971   1.30609   -2.000
 7145.00    1.33851   1.30994   -2.000
 7146.00    1.29282   1.30760   -2.000
 7147.00    1.23970   1.30804   -2.000
 7148.00    1.29463   1.31185   -2.000
 7149.00    1.36802   1.31112   -2.000
 7150.00    1.37452   1.31107   -2.000
 7151.00    1.37237   1.31400   -2.000
 7152.00    1.36298   1.31498   -2.000
 7153.00    1.35293   1.31415   -2.000
 7154.00    1.36163   1.31548   -2.000
 7155.00    1.37134   1.31772   -2.000
 7156.00    1.31298   1.31673   -2.000
 7157.00    1.25383   1.31690   -2.000
 7158.00    1.25374   1.31918   -2.000
 7159.00    1.25826   1.31805   -2.000
 7160.00    1.36738   1.31807   -2.000
 7161.00    1.47471   1.32076   -2.000
 7162.00    1.55945   1.31967   -2.000
 7163.00    1.63120   1.31948   -2.000
 7164.00    1.59204   1.32246   -2.000
 7165.00    1.54650   1.32204   -2.000
 7166.00    1.46051   1.32244   -2.000
 7167.00    1.40495   1.32519   -2.000
 7168.00    1.50052   1.32428   -2.000
 7169.00    1.56921   1.32460   -2.000
 7170.00    1.52971   1.32691   -2.000
 7171.00    1.49262   1.32534   -2.000
 7172.00    1.46359   1.32512   -2.000
 7173.00    1.41871   1.32624   -2.000
 7174.00    1.32910   1.32368   -2.000
 7175.00    1.28859   1.32292   -2.000
 7176.00    1.36652   1.32264   -2.000
 7177.00    1.41932   1.31978   -2.000
 7178.00    1.41981   1.31902   -2.000
 7179.00    1.40630   1.31688   -2.000
 7180.00    1.36744   1.31394   -2.000
 7181.00    1.33826   1.31436   -2.000
 7182.00    1.32439   1.31154   -2.000
 7183.00    1.31231   1.30887   -2.000
 7184.00    1.30270   1.31005   -2.000
 7185.00    1.29291   1.30713   -2.000
 7186.00    1.28290   1.30530   -2.000
 7187.00    1.29188   1.30741   -2.000
 7188.00    1.32134   1.30534   -2.000
 7189.00    1.34231   1.30452   -2.000
 7190.00    1.35519   1.30726   -2.000
 7191.00    1.35672   1.30621   -2.000
 7192.00    1.34874   1.30569   -2.000
 7193.00    1.30887   1.30858   -2.000
 7194.00    1.24547   1.30889   -2.000
 7195.00    1.23399   1.30847   -2.000
 7196.00    1.25618   1.31042   -2.000
 7197.00    1.25159   1.31153   -2.000
 7198.00    1.23182   1.31159   -2.000
 7199.00    1.27853   1.31219   -2.000
 7200.00    1.35808   1.31359   -2.000
 7201.00    1.40627   1.31415   -2.000
 7202.00    1.44106   1.31343   -2.000
 7203.00    1.41708   1.31538   -2.000
 7204.00    1.37160   1.31669   -2.000
 7205.00    1.30578   1.31493   -2.000
 7206.00    1.23367   1.31741   -2.000
 7207.00    1.23022   1.31983   -2.000
 7208.00    1.24448   1.31830   -2.000
 7209.00    1.25221   1.32130   -2.000
 7210.00    1.25857   1.32451   -2.000
 7211.00    1.27196   1.32367   -2.000
 7212.00    1.28653   1.32661   -2.000
 7213.00    1.28921   1.33044   -2.000
 7214.00    1.29040   1.33094   -2.000
 7215.00    1.32804   1.33346   -2.000
 7216.00    1.36884   1.33749   -2.000
 7217.00    1.33749   1.33944   -2.000
 7218.00    1.30247   1.34119   -2.000
